"","condition","age","gender","ethnicity","education","religionChild","religionNow","job","maritalStatus","children","country","englishNative","politicalIdeology","studyMoralPhil","vegetarian","beliefGod","beliefAfterlife","beliefTradition","beliefRules","beliefLeader","comments","trialNum","leftCharacter","rightCharacter","response","rt","responseNum"
"1","Rage",37,"female","white","college_assocDegree","none","christianity_other","EMT","no","0","USA","yes_only","independent","no","yes","agree_strong","agree_strong","neither","disagree_strong","agree_moderate","Thank you for the opportunity to participate in your survey.  I took it seriously, and answered honestly. 

Hope that your study goes well. 

Have a great day!
",1,"fetus","todd_billingsley_man","much more right",3356,2
"2","Rage",37,"female","white","college_assocDegree","none","christianity_other","EMT","no","0","USA","yes_only","independent","no","yes","agree_strong","agree_strong","neither","disagree_strong","agree_moderate","Thank you for the opportunity to participate in your survey.  I took it seriously, and answered honestly. 

Hope that your study goes well. 

Have a great day!
",2,"gerald_schiff_pvs","kismet_robot","both equally",5895,0
"3","Rage",37,"female","white","college_assocDegree","none","christianity_other","EMT","no","0","USA","yes_only","independent","no","yes","agree_strong","agree_strong","neither","disagree_strong","agree_moderate","Thank you for the opportunity to participate in your survey.  I took it seriously, and answered honestly. 

Hope that your study goes well. 

Have a great day!
",3,"kismet_robot","delores_gleitman_deceased","both equally",4064,0
"4","Rage",37,"female","white","college_assocDegree","none","christianity_other","EMT","no","0","USA","yes_only","independent","no","yes","agree_strong","agree_strong","neither","disagree_strong","agree_moderate","Thank you for the opportunity to participate in your survey.  I took it seriously, and answered honestly. 

Hope that your study goes well. 

Have a great day!
",4,"toby_chimp","charlie_dog","much more left",3649,-2
"5","Rage",37,"female","white","college_assocDegree","none","christianity_other","EMT","no","0","USA","yes_only","independent","no","yes","agree_strong","agree_strong","neither","disagree_strong","agree_moderate","Thank you for the opportunity to participate in your survey.  I took it seriously, and answered honestly. 

Hope that your study goes well. 

Have a great day!
",5,"charlie_dog","you","much more right",2465,2
"6","Rage",37,"female","white","college_assocDegree","none","christianity_other","EMT","no","0","USA","yes_only","independent","no","yes","agree_strong","agree_strong","neither","disagree_strong","agree_moderate","Thank you for the opportunity to participate in your survey.  I took it seriously, and answered honestly. 

Hope that your study goes well. 

Have a great day!
",6,"samantha_hill_girl","toby_chimp","much more left",3436,-2
"7","Rage",37,"female","white","college_assocDegree","none","christianity_other","EMT","no","0","USA","yes_only","independent","no","yes","agree_strong","agree_strong","neither","disagree_strong","agree_moderate","Thank you for the opportunity to participate in your survey.  I took it seriously, and answered honestly. 

Hope that your study goes well. 

Have a great day!
",7,"god","gerald_schiff_pvs","both equally",2451,0
"8","Rage",37,"female","white","college_assocDegree","none","christianity_other","EMT","no","0","USA","yes_only","independent","no","yes","agree_strong","agree_strong","neither","disagree_strong","agree_moderate","Thank you for the opportunity to participate in your survey.  I took it seriously, and answered honestly. 

Hope that your study goes well. 

Have a great day!
",8,"sharon_harvey_woman","you","both equally",3381,0
"9","Rage",37,"female","white","college_assocDegree","none","christianity_other","EMT","no","0","USA","yes_only","independent","no","yes","agree_strong","agree_strong","neither","disagree_strong","agree_moderate","Thank you for the opportunity to participate in your survey.  I took it seriously, and answered honestly. 

Hope that your study goes well. 

Have a great day!
",9,"green_frog","fetus","both equally",2798,0
"10","Rage",37,"female","white","college_assocDegree","none","christianity_other","EMT","no","0","USA","yes_only","independent","no","yes","agree_strong","agree_strong","neither","disagree_strong","agree_moderate","Thank you for the opportunity to participate in your survey.  I took it seriously, and answered honestly. 

Hope that your study goes well. 

Have a great day!
",10,"nicholas_gannon_baby","gerald_schiff_pvs","much more left",4900,-2
"11","Rage",37,"female","white","college_assocDegree","none","christianity_other","EMT","no","0","USA","yes_only","independent","no","yes","agree_strong","agree_strong","neither","disagree_strong","agree_moderate","Thank you for the opportunity to participate in your survey.  I took it seriously, and answered honestly. 

Hope that your study goes well. 

Have a great day!
",11,"fetus","sharon_harvey_woman","much more right",1891,2
"12","Rage",37,"female","white","college_assocDegree","none","christianity_other","EMT","no","0","USA","yes_only","independent","no","yes","agree_strong","agree_strong","neither","disagree_strong","agree_moderate","Thank you for the opportunity to participate in your survey.  I took it seriously, and answered honestly. 

Hope that your study goes well. 

Have a great day!
",12,"nicholas_gannon_baby","fetus","much more left",1552,-2
"13","Rage",37,"female","white","college_assocDegree","none","christianity_other","EMT","no","0","USA","yes_only","independent","no","yes","agree_strong","agree_strong","neither","disagree_strong","agree_moderate","Thank you for the opportunity to participate in your survey.  I took it seriously, and answered honestly. 

Hope that your study goes well. 

Have a great day!
",13,"gerald_schiff_pvs","toby_chimp","much more right",3115,2
"14","Rage",37,"female","white","college_assocDegree","none","christianity_other","EMT","no","0","USA","yes_only","independent","no","yes","agree_strong","agree_strong","neither","disagree_strong","agree_moderate","Thank you for the opportunity to participate in your survey.  I took it seriously, and answered honestly. 

Hope that your study goes well. 

Have a great day!
",14,"todd_billingsley_man","gerald_schiff_pvs","much more left",1771,-2
"15","Rage",37,"female","white","college_assocDegree","none","christianity_other","EMT","no","0","USA","yes_only","independent","no","yes","agree_strong","agree_strong","neither","disagree_strong","agree_moderate","Thank you for the opportunity to participate in your survey.  I took it seriously, and answered honestly. 

Hope that your study goes well. 

Have a great day!
",15,"fetus","kismet_robot","both equally",2389,0
"16","Rage",37,"female","white","college_assocDegree","none","christianity_other","EMT","no","0","USA","yes_only","independent","no","yes","agree_strong","agree_strong","neither","disagree_strong","agree_moderate","Thank you for the opportunity to participate in your survey.  I took it seriously, and answered honestly. 

Hope that your study goes well. 

Have a great day!
",16,"toby_chimp","kismet_robot","much more left",1374,-2
"17","Rage",37,"female","white","college_assocDegree","none","christianity_other","EMT","no","0","USA","yes_only","independent","no","yes","agree_strong","agree_strong","neither","disagree_strong","agree_moderate","Thank you for the opportunity to participate in your survey.  I took it seriously, and answered honestly. 

Hope that your study goes well. 

Have a great day!
",17,"god","delores_gleitman_deceased","both equally",3504,0
"18","Rage",37,"female","white","college_assocDegree","none","christianity_other","EMT","no","0","USA","yes_only","independent","no","yes","agree_strong","agree_strong","neither","disagree_strong","agree_moderate","Thank you for the opportunity to participate in your survey.  I took it seriously, and answered honestly. 

Hope that your study goes well. 

Have a great day!
",18,"delores_gleitman_deceased","you","much more right",2373,2
"19","Rage",37,"female","white","college_assocDegree","none","christianity_other","EMT","no","0","USA","yes_only","independent","no","yes","agree_strong","agree_strong","neither","disagree_strong","agree_moderate","Thank you for the opportunity to participate in your survey.  I took it seriously, and answered honestly. 

Hope that your study goes well. 

Have a great day!
",19,"charlie_dog","kismet_robot","both equally",2566,0
"20","Rage",37,"female","white","college_assocDegree","none","christianity_other","EMT","no","0","USA","yes_only","independent","no","yes","agree_strong","agree_strong","neither","disagree_strong","agree_moderate","Thank you for the opportunity to participate in your survey.  I took it seriously, and answered honestly. 

Hope that your study goes well. 

Have a great day!
",20,"god","samantha_hill_girl","much more right",3547,2
"21","Rage",37,"female","white","college_assocDegree","none","christianity_other","EMT","no","0","USA","yes_only","independent","no","yes","agree_strong","agree_strong","neither","disagree_strong","agree_moderate","Thank you for the opportunity to participate in your survey.  I took it seriously, and answered honestly. 

Hope that your study goes well. 

Have a great day!
",21,"charlie_dog","sharon_harvey_woman","much more right",2383,2
"22","Rage",37,"female","white","college_assocDegree","none","christianity_other","EMT","no","0","USA","yes_only","independent","no","yes","agree_strong","agree_strong","neither","disagree_strong","agree_moderate","Thank you for the opportunity to participate in your survey.  I took it seriously, and answered honestly. 

Hope that your study goes well. 

Have a great day!
",22,"samantha_hill_girl","you","much more left",3908,-2
"23","Rage",37,"female","white","college_assocDegree","none","christianity_other","EMT","no","0","USA","yes_only","independent","no","yes","agree_strong","agree_strong","neither","disagree_strong","agree_moderate","Thank you for the opportunity to participate in your survey.  I took it seriously, and answered honestly. 

Hope that your study goes well. 

Have a great day!
",23,"samantha_hill_girl","kismet_robot","much more left",1436,-2
"24","Rage",37,"female","white","college_assocDegree","none","christianity_other","EMT","no","0","USA","yes_only","independent","no","yes","agree_strong","agree_strong","neither","disagree_strong","agree_moderate","Thank you for the opportunity to participate in your survey.  I took it seriously, and answered honestly. 

Hope that your study goes well. 

Have a great day!
",24,"toby_chimp","nicholas_gannon_baby","much more left",1624,-2
"25","Rage",37,"female","white","college_assocDegree","none","christianity_other","EMT","no","0","USA","yes_only","independent","no","yes","agree_strong","agree_strong","neither","disagree_strong","agree_moderate","Thank you for the opportunity to participate in your survey.  I took it seriously, and answered honestly. 

Hope that your study goes well. 

Have a great day!
",25,"delores_gleitman_deceased","charlie_dog","both equally",2501,0
"26","Rage",37,"female","white","college_assocDegree","none","christianity_other","EMT","no","0","USA","yes_only","independent","no","yes","agree_strong","agree_strong","neither","disagree_strong","agree_moderate","Thank you for the opportunity to participate in your survey.  I took it seriously, and answered honestly. 

Hope that your study goes well. 

Have a great day!
",26,"fetus","you","much more right",1370,2
"27","Rage",37,"female","white","college_assocDegree","none","christianity_other","EMT","no","0","USA","yes_only","independent","no","yes","agree_strong","agree_strong","neither","disagree_strong","agree_moderate","Thank you for the opportunity to participate in your survey.  I took it seriously, and answered honestly. 

Hope that your study goes well. 

Have a great day!
",27,"todd_billingsley_man","samantha_hill_girl","both equally",3904,0
"28","Rage",37,"female","white","college_assocDegree","none","christianity_other","EMT","no","0","USA","yes_only","independent","no","yes","agree_strong","agree_strong","neither","disagree_strong","agree_moderate","Thank you for the opportunity to participate in your survey.  I took it seriously, and answered honestly. 

Hope that your study goes well. 

Have a great day!
",28,"you","gerald_schiff_pvs","much more left",2061,-2
"29","Rage",37,"female","white","college_assocDegree","none","christianity_other","EMT","no","0","USA","yes_only","independent","no","yes","agree_strong","agree_strong","neither","disagree_strong","agree_moderate","Thank you for the opportunity to participate in your survey.  I took it seriously, and answered honestly. 

Hope that your study goes well. 

Have a great day!
",29,"nicholas_gannon_baby","delores_gleitman_deceased","much more left",1668,-2
"30","Rage",37,"female","white","college_assocDegree","none","christianity_other","EMT","no","0","USA","yes_only","independent","no","yes","agree_strong","agree_strong","neither","disagree_strong","agree_moderate","Thank you for the opportunity to participate in your survey.  I took it seriously, and answered honestly. 

Hope that your study goes well. 

Have a great day!
",30,"delores_gleitman_deceased","samantha_hill_girl","much more right",1429,2
"31","Rage",37,"female","white","college_assocDegree","none","christianity_other","EMT","no","0","USA","yes_only","independent","no","yes","agree_strong","agree_strong","neither","disagree_strong","agree_moderate","Thank you for the opportunity to participate in your survey.  I took it seriously, and answered honestly. 

Hope that your study goes well. 

Have a great day!
",31,"todd_billingsley_man","delores_gleitman_deceased","much more left",1230,-2
"32","Rage",37,"female","white","college_assocDegree","none","christianity_other","EMT","no","0","USA","yes_only","independent","no","yes","agree_strong","agree_strong","neither","disagree_strong","agree_moderate","Thank you for the opportunity to participate in your survey.  I took it seriously, and answered honestly. 

Hope that your study goes well. 

Have a great day!
",32,"delores_gleitman_deceased","gerald_schiff_pvs","both equally",3048,0
"33","Rage",37,"female","white","college_assocDegree","none","christianity_other","EMT","no","0","USA","yes_only","independent","no","yes","agree_strong","agree_strong","neither","disagree_strong","agree_moderate","Thank you for the opportunity to participate in your survey.  I took it seriously, and answered honestly. 

Hope that your study goes well. 

Have a great day!
",33,"god","kismet_robot","both equally",2921,0
"34","Rage",37,"female","white","college_assocDegree","none","christianity_other","EMT","no","0","USA","yes_only","independent","no","yes","agree_strong","agree_strong","neither","disagree_strong","agree_moderate","Thank you for the opportunity to participate in your survey.  I took it seriously, and answered honestly. 

Hope that your study goes well. 

Have a great day!
",34,"charlie_dog","fetus","both equally",2553,0
"35","Rage",37,"female","white","college_assocDegree","none","christianity_other","EMT","no","0","USA","yes_only","independent","no","yes","agree_strong","agree_strong","neither","disagree_strong","agree_moderate","Thank you for the opportunity to participate in your survey.  I took it seriously, and answered honestly. 

Hope that your study goes well. 

Have a great day!
",35,"green_frog","charlie_dog","both equally",1813,0
"36","Rage",37,"female","white","college_assocDegree","none","christianity_other","EMT","no","0","USA","yes_only","independent","no","yes","agree_strong","agree_strong","neither","disagree_strong","agree_moderate","Thank you for the opportunity to participate in your survey.  I took it seriously, and answered honestly. 

Hope that your study goes well. 

Have a great day!
",36,"green_frog","toby_chimp","much more right",1360,2
"37","Rage",37,"female","white","college_assocDegree","none","christianity_other","EMT","no","0","USA","yes_only","independent","no","yes","agree_strong","agree_strong","neither","disagree_strong","agree_moderate","Thank you for the opportunity to participate in your survey.  I took it seriously, and answered honestly. 

Hope that your study goes well. 

Have a great day!
",37,"fetus","delores_gleitman_deceased","both equally",1462,0
"38","Rage",37,"female","white","college_assocDegree","none","christianity_other","EMT","no","0","USA","yes_only","independent","no","yes","agree_strong","agree_strong","neither","disagree_strong","agree_moderate","Thank you for the opportunity to participate in your survey.  I took it seriously, and answered honestly. 

Hope that your study goes well. 

Have a great day!
",38,"nicholas_gannon_baby","you","much more left",5471,-2
"39","Rage",37,"female","white","college_assocDegree","none","christianity_other","EMT","no","0","USA","yes_only","independent","no","yes","agree_strong","agree_strong","neither","disagree_strong","agree_moderate","Thank you for the opportunity to participate in your survey.  I took it seriously, and answered honestly. 

Hope that your study goes well. 

Have a great day!
",39,"green_frog","delores_gleitman_deceased","both equally",1302,0
"40","Rage",37,"female","white","college_assocDegree","none","christianity_other","EMT","no","0","USA","yes_only","independent","no","yes","agree_strong","agree_strong","neither","disagree_strong","agree_moderate","Thank you for the opportunity to participate in your survey.  I took it seriously, and answered honestly. 

Hope that your study goes well. 

Have a great day!
",40,"charlie_dog","gerald_schiff_pvs","both equally",1779,0
"41","Rage",37,"female","white","college_assocDegree","none","christianity_other","EMT","no","0","USA","yes_only","independent","no","yes","agree_strong","agree_strong","neither","disagree_strong","agree_moderate","Thank you for the opportunity to participate in your survey.  I took it seriously, and answered honestly. 

Hope that your study goes well. 

Have a great day!
",41,"sharon_harvey_woman","nicholas_gannon_baby","both equally",4323,0
"42","Rage",37,"female","white","college_assocDegree","none","christianity_other","EMT","no","0","USA","yes_only","independent","no","yes","agree_strong","agree_strong","neither","disagree_strong","agree_moderate","Thank you for the opportunity to participate in your survey.  I took it seriously, and answered honestly. 

Hope that your study goes well. 

Have a great day!
",42,"gerald_schiff_pvs","samantha_hill_girl","much more right",4509,2
"43","Rage",37,"female","white","college_assocDegree","none","christianity_other","EMT","no","0","USA","yes_only","independent","no","yes","agree_strong","agree_strong","neither","disagree_strong","agree_moderate","Thank you for the opportunity to participate in your survey.  I took it seriously, and answered honestly. 

Hope that your study goes well. 

Have a great day!
",43,"gerald_schiff_pvs","fetus","both equally",1441,0
"44","Rage",37,"female","white","college_assocDegree","none","christianity_other","EMT","no","0","USA","yes_only","independent","no","yes","agree_strong","agree_strong","neither","disagree_strong","agree_moderate","Thank you for the opportunity to participate in your survey.  I took it seriously, and answered honestly. 

Hope that your study goes well. 

Have a great day!
",44,"god","you","much more right",1931,2
"45","Rage",37,"female","white","college_assocDegree","none","christianity_other","EMT","no","0","USA","yes_only","independent","no","yes","agree_strong","agree_strong","neither","disagree_strong","agree_moderate","Thank you for the opportunity to participate in your survey.  I took it seriously, and answered honestly. 

Hope that your study goes well. 

Have a great day!
",45,"nicholas_gannon_baby","god","much more left",2417,-2
"46","Rage",37,"female","white","college_assocDegree","none","christianity_other","EMT","no","0","USA","yes_only","independent","no","yes","agree_strong","agree_strong","neither","disagree_strong","agree_moderate","Thank you for the opportunity to participate in your survey.  I took it seriously, and answered honestly. 

Hope that your study goes well. 

Have a great day!
",46,"you","toby_chimp","much more right",10688,2
"47","Rage",37,"female","white","college_assocDegree","none","christianity_other","EMT","no","0","USA","yes_only","independent","no","yes","agree_strong","agree_strong","neither","disagree_strong","agree_moderate","Thank you for the opportunity to participate in your survey.  I took it seriously, and answered honestly. 

Hope that your study goes well. 

Have a great day!
",47,"samantha_hill_girl","sharon_harvey_woman","slightly more left",4728,-1
"48","Rage",37,"female","white","college_assocDegree","none","christianity_other","EMT","no","0","USA","yes_only","independent","no","yes","agree_strong","agree_strong","neither","disagree_strong","agree_moderate","Thank you for the opportunity to participate in your survey.  I took it seriously, and answered honestly. 

Hope that your study goes well. 

Have a great day!
",48,"delores_gleitman_deceased","toby_chimp","much more right",3481,2
"49","Rage",37,"female","white","college_assocDegree","none","christianity_other","EMT","no","0","USA","yes_only","independent","no","yes","agree_strong","agree_strong","neither","disagree_strong","agree_moderate","Thank you for the opportunity to participate in your survey.  I took it seriously, and answered honestly. 

Hope that your study goes well. 

Have a great day!
",49,"samantha_hill_girl","fetus","much more left",1703,-2
"50","Rage",37,"female","white","college_assocDegree","none","christianity_other","EMT","no","0","USA","yes_only","independent","no","yes","agree_strong","agree_strong","neither","disagree_strong","agree_moderate","Thank you for the opportunity to participate in your survey.  I took it seriously, and answered honestly. 

Hope that your study goes well. 

Have a great day!
",50,"todd_billingsley_man","green_frog","much more left",1298,-2
"51","Rage",37,"female","white","college_assocDegree","none","christianity_other","EMT","no","0","USA","yes_only","independent","no","yes","agree_strong","agree_strong","neither","disagree_strong","agree_moderate","Thank you for the opportunity to participate in your survey.  I took it seriously, and answered honestly. 

Hope that your study goes well. 

Have a great day!
",51,"todd_billingsley_man","toby_chimp","slightly more right",6733,1
"52","Rage",37,"female","white","college_assocDegree","none","christianity_other","EMT","no","0","USA","yes_only","independent","no","yes","agree_strong","agree_strong","neither","disagree_strong","agree_moderate","Thank you for the opportunity to participate in your survey.  I took it seriously, and answered honestly. 

Hope that your study goes well. 

Have a great day!
",52,"nicholas_gannon_baby","green_frog","much more left",1357,-2
"53","Rage",37,"female","white","college_assocDegree","none","christianity_other","EMT","no","0","USA","yes_only","independent","no","yes","agree_strong","agree_strong","neither","disagree_strong","agree_moderate","Thank you for the opportunity to participate in your survey.  I took it seriously, and answered honestly. 

Hope that your study goes well. 

Have a great day!
",53,"sharon_harvey_woman","toby_chimp","slightly more right",2629,1
"54","Rage",37,"female","white","college_assocDegree","none","christianity_other","EMT","no","0","USA","yes_only","independent","no","yes","agree_strong","agree_strong","neither","disagree_strong","agree_moderate","Thank you for the opportunity to participate in your survey.  I took it seriously, and answered honestly. 

Hope that your study goes well. 

Have a great day!
",54,"charlie_dog","todd_billingsley_man","much more right",2512,2
"55","Rage",37,"female","white","college_assocDegree","none","christianity_other","EMT","no","0","USA","yes_only","independent","no","yes","agree_strong","agree_strong","neither","disagree_strong","agree_moderate","Thank you for the opportunity to participate in your survey.  I took it seriously, and answered honestly. 

Hope that your study goes well. 

Have a great day!
",55,"gerald_schiff_pvs","sharon_harvey_woman","much more right",1516,2
"56","Rage",37,"female","white","college_assocDegree","none","christianity_other","EMT","no","0","USA","yes_only","independent","no","yes","agree_strong","agree_strong","neither","disagree_strong","agree_moderate","Thank you for the opportunity to participate in your survey.  I took it seriously, and answered honestly. 

Hope that your study goes well. 

Have a great day!
",56,"sharon_harvey_woman","kismet_robot","much more left",1234,-2
"57","Rage",37,"female","white","college_assocDegree","none","christianity_other","EMT","no","0","USA","yes_only","independent","no","yes","agree_strong","agree_strong","neither","disagree_strong","agree_moderate","Thank you for the opportunity to participate in your survey.  I took it seriously, and answered honestly. 

Hope that your study goes well. 

Have a great day!
",57,"green_frog","samantha_hill_girl","much more right",2869,2
"58","Rage",37,"female","white","college_assocDegree","none","christianity_other","EMT","no","0","USA","yes_only","independent","no","yes","agree_strong","agree_strong","neither","disagree_strong","agree_moderate","Thank you for the opportunity to participate in your survey.  I took it seriously, and answered honestly. 

Hope that your study goes well. 

Have a great day!
",58,"toby_chimp","fetus","much more left",1822,-2
"59","Rage",37,"female","white","college_assocDegree","none","christianity_other","EMT","no","0","USA","yes_only","independent","no","yes","agree_strong","agree_strong","neither","disagree_strong","agree_moderate","Thank you for the opportunity to participate in your survey.  I took it seriously, and answered honestly. 

Hope that your study goes well. 

Have a great day!
",59,"god","green_frog","both equally",2254,0
"60","Rage",37,"female","white","college_assocDegree","none","christianity_other","EMT","no","0","USA","yes_only","independent","no","yes","agree_strong","agree_strong","neither","disagree_strong","agree_moderate","Thank you for the opportunity to participate in your survey.  I took it seriously, and answered honestly. 

Hope that your study goes well. 

Have a great day!
",60,"nicholas_gannon_baby","todd_billingsley_man","much more left",4447,-2
"61","Rage",37,"female","white","college_assocDegree","none","christianity_other","EMT","no","0","USA","yes_only","independent","no","yes","agree_strong","agree_strong","neither","disagree_strong","agree_moderate","Thank you for the opportunity to participate in your survey.  I took it seriously, and answered honestly. 

Hope that your study goes well. 

Have a great day!
",61,"god","sharon_harvey_woman","much more right",1635,2
"62","Rage",37,"female","white","college_assocDegree","none","christianity_other","EMT","no","0","USA","yes_only","independent","no","yes","agree_strong","agree_strong","neither","disagree_strong","agree_moderate","Thank you for the opportunity to participate in your survey.  I took it seriously, and answered honestly. 

Hope that your study goes well. 

Have a great day!
",62,"delores_gleitman_deceased","sharon_harvey_woman","much more right",1825,2
"63","Rage",37,"female","white","college_assocDegree","none","christianity_other","EMT","no","0","USA","yes_only","independent","no","yes","agree_strong","agree_strong","neither","disagree_strong","agree_moderate","Thank you for the opportunity to participate in your survey.  I took it seriously, and answered honestly. 

Hope that your study goes well. 

Have a great day!
",63,"charlie_dog","god","both equally",1938,0
"64","Rage",37,"female","white","college_assocDegree","none","christianity_other","EMT","no","0","USA","yes_only","independent","no","yes","agree_strong","agree_strong","neither","disagree_strong","agree_moderate","Thank you for the opportunity to participate in your survey.  I took it seriously, and answered honestly. 

Hope that your study goes well. 

Have a great day!
",64,"charlie_dog","nicholas_gannon_baby","much more right",2078,2
"65","Rage",37,"female","white","college_assocDegree","none","christianity_other","EMT","no","0","USA","yes_only","independent","no","yes","agree_strong","agree_strong","neither","disagree_strong","agree_moderate","Thank you for the opportunity to participate in your survey.  I took it seriously, and answered honestly. 

Hope that your study goes well. 

Have a great day!
",65,"kismet_robot","todd_billingsley_man","much more right",1118,2
"66","Rage",37,"female","white","college_assocDegree","none","christianity_other","EMT","no","0","USA","yes_only","independent","no","yes","agree_strong","agree_strong","neither","disagree_strong","agree_moderate","Thank you for the opportunity to participate in your survey.  I took it seriously, and answered honestly. 

Hope that your study goes well. 

Have a great day!
",66,"toby_chimp","god","much more left",2492,-2
"67","Rage",37,"female","white","college_assocDegree","none","christianity_other","EMT","no","0","USA","yes_only","independent","no","yes","agree_strong","agree_strong","neither","disagree_strong","agree_moderate","Thank you for the opportunity to participate in your survey.  I took it seriously, and answered honestly. 

Hope that your study goes well. 

Have a great day!
",67,"green_frog","sharon_harvey_woman","much more right",1620,2
"68","Rage",37,"female","white","college_assocDegree","none","christianity_other","EMT","no","0","USA","yes_only","independent","no","yes","agree_strong","agree_strong","neither","disagree_strong","agree_moderate","Thank you for the opportunity to participate in your survey.  I took it seriously, and answered honestly. 

Hope that your study goes well. 

Have a great day!
",68,"god","fetus","both equally",1650,0
"69","Rage",37,"female","white","college_assocDegree","none","christianity_other","EMT","no","0","USA","yes_only","independent","no","yes","agree_strong","agree_strong","neither","disagree_strong","agree_moderate","Thank you for the opportunity to participate in your survey.  I took it seriously, and answered honestly. 

Hope that your study goes well. 

Have a great day!
",69,"charlie_dog","samantha_hill_girl","much more right",1451,2
"70","Rage",37,"female","white","college_assocDegree","none","christianity_other","EMT","no","0","USA","yes_only","independent","no","yes","agree_strong","agree_strong","neither","disagree_strong","agree_moderate","Thank you for the opportunity to participate in your survey.  I took it seriously, and answered honestly. 

Hope that your study goes well. 

Have a great day!
",70,"kismet_robot","you","much more right",1448,2
"71","Rage",37,"female","white","college_assocDegree","none","christianity_other","EMT","no","0","USA","yes_only","independent","no","yes","agree_strong","agree_strong","neither","disagree_strong","agree_moderate","Thank you for the opportunity to participate in your survey.  I took it seriously, and answered honestly. 

Hope that your study goes well. 

Have a great day!
",71,"you","green_frog","much more left",1632,-2
"72","Rage",37,"female","white","college_assocDegree","none","christianity_other","EMT","no","0","USA","yes_only","independent","no","yes","agree_strong","agree_strong","neither","disagree_strong","agree_moderate","Thank you for the opportunity to participate in your survey.  I took it seriously, and answered honestly. 

Hope that your study goes well. 

Have a great day!
",72,"todd_billingsley_man","god","much more left",1836,-2
"73","Rage",37,"female","white","college_assocDegree","none","christianity_other","EMT","no","0","USA","yes_only","independent","no","yes","agree_strong","agree_strong","neither","disagree_strong","agree_moderate","Thank you for the opportunity to participate in your survey.  I took it seriously, and answered honestly. 

Hope that your study goes well. 

Have a great day!
",73,"kismet_robot","green_frog","both equally",1368,0
"74","Rage",37,"female","white","college_assocDegree","none","christianity_other","EMT","no","0","USA","yes_only","independent","no","yes","agree_strong","agree_strong","neither","disagree_strong","agree_moderate","Thank you for the opportunity to participate in your survey.  I took it seriously, and answered honestly. 

Hope that your study goes well. 

Have a great day!
",74,"nicholas_gannon_baby","kismet_robot","much more left",1715,-2
"75","Rage",37,"female","white","college_assocDegree","none","christianity_other","EMT","no","0","USA","yes_only","independent","no","yes","agree_strong","agree_strong","neither","disagree_strong","agree_moderate","Thank you for the opportunity to participate in your survey.  I took it seriously, and answered honestly. 

Hope that your study goes well. 

Have a great day!
",75,"you","todd_billingsley_man","both equally",2364,0
"76","Rage",37,"female","white","college_assocDegree","none","christianity_other","EMT","no","0","USA","yes_only","independent","no","yes","agree_strong","agree_strong","neither","disagree_strong","agree_moderate","Thank you for the opportunity to participate in your survey.  I took it seriously, and answered honestly. 

Hope that your study goes well. 

Have a great day!
",76,"samantha_hill_girl","nicholas_gannon_baby","both equally",2043,0
"77","Rage",37,"female","white","college_assocDegree","none","christianity_other","EMT","no","0","USA","yes_only","independent","no","yes","agree_strong","agree_strong","neither","disagree_strong","agree_moderate","Thank you for the opportunity to participate in your survey.  I took it seriously, and answered honestly. 

Hope that your study goes well. 

Have a great day!
",77,"sharon_harvey_woman","todd_billingsley_man","both equally",1699,0
"78","Rage",37,"female","white","college_assocDegree","none","christianity_other","EMT","no","0","USA","yes_only","independent","no","yes","agree_strong","agree_strong","neither","disagree_strong","agree_moderate","Thank you for the opportunity to participate in your survey.  I took it seriously, and answered honestly. 

Hope that your study goes well. 

Have a great day!
",78,"green_frog","gerald_schiff_pvs","both equally",1640,0
"79","Consciousness",28,"male","white","college_some","none","none","Self-employed","no","0","USA","yes_only","independent","no","no","disagree_strong","disagree_strong","disagree_strong","disagree_strong","neither","",1,"charlie_dog","fetus","much more left",6748,-2
"80","Consciousness",28,"male","white","college_some","none","none","Self-employed","no","0","USA","yes_only","independent","no","no","disagree_strong","disagree_strong","disagree_strong","disagree_strong","neither","",2,"green_frog","toby_chimp","slightly more right",5451,1
"81","Consciousness",28,"male","white","college_some","none","none","Self-employed","no","0","USA","yes_only","independent","no","no","disagree_strong","disagree_strong","disagree_strong","disagree_strong","neither","",3,"fetus","todd_billingsley_man","much more right",1912,2
"82","Consciousness",28,"male","white","college_some","none","none","Self-employed","no","0","USA","yes_only","independent","no","no","disagree_strong","disagree_strong","disagree_strong","disagree_strong","neither","",4,"kismet_robot","todd_billingsley_man","much more right",6237,2
"83","Consciousness",28,"male","white","college_some","none","none","Self-employed","no","0","USA","yes_only","independent","no","no","disagree_strong","disagree_strong","disagree_strong","disagree_strong","neither","",5,"samantha_hill_girl","toby_chimp","slightly more left",5201,-1
"84","Consciousness",28,"male","white","college_some","none","none","Self-employed","no","0","USA","yes_only","independent","no","no","disagree_strong","disagree_strong","disagree_strong","disagree_strong","neither","",6,"charlie_dog","gerald_schiff_pvs","much more left",7005,-2
"85","Consciousness",28,"male","white","college_some","none","none","Self-employed","no","0","USA","yes_only","independent","no","no","disagree_strong","disagree_strong","disagree_strong","disagree_strong","neither","",7,"fetus","delores_gleitman_deceased","both equally",4770,0
"86","Consciousness",28,"male","white","college_some","none","none","Self-employed","no","0","USA","yes_only","independent","no","no","disagree_strong","disagree_strong","disagree_strong","disagree_strong","neither","",8,"charlie_dog","toby_chimp","slightly more right",3344,1
"87","Consciousness",28,"male","white","college_some","none","none","Self-employed","no","0","USA","yes_only","independent","no","no","disagree_strong","disagree_strong","disagree_strong","disagree_strong","neither","",9,"delores_gleitman_deceased","you","much more right",3410,2
"88","Consciousness",28,"male","white","college_some","none","none","Self-employed","no","0","USA","yes_only","independent","no","no","disagree_strong","disagree_strong","disagree_strong","disagree_strong","neither","",10,"samantha_hill_girl","delores_gleitman_deceased","much more left",3074,-2
"89","Consciousness",28,"male","white","college_some","none","none","Self-employed","no","0","USA","yes_only","independent","no","no","disagree_strong","disagree_strong","disagree_strong","disagree_strong","neither","",11,"todd_billingsley_man","gerald_schiff_pvs","much more left",1459,-2
"90","Consciousness",28,"male","white","college_some","none","none","Self-employed","no","0","USA","yes_only","independent","no","no","disagree_strong","disagree_strong","disagree_strong","disagree_strong","neither","",12,"toby_chimp","nicholas_gannon_baby","slightly more left",10184,-1
"91","Consciousness",28,"male","white","college_some","none","none","Self-employed","no","0","USA","yes_only","independent","no","no","disagree_strong","disagree_strong","disagree_strong","disagree_strong","neither","",13,"samantha_hill_girl","you","much more right",3258,2
"92","Consciousness",28,"male","white","college_some","none","none","Self-employed","no","0","USA","yes_only","independent","no","no","disagree_strong","disagree_strong","disagree_strong","disagree_strong","neither","",14,"samantha_hill_girl","green_frog","slightly more left",2074,-1
"93","Consciousness",28,"male","white","college_some","none","none","Self-employed","no","0","USA","yes_only","independent","no","no","disagree_strong","disagree_strong","disagree_strong","disagree_strong","neither","",15,"samantha_hill_girl","gerald_schiff_pvs","much more left",1509,-2
"94","Consciousness",28,"male","white","college_some","none","none","Self-employed","no","0","USA","yes_only","independent","no","no","disagree_strong","disagree_strong","disagree_strong","disagree_strong","neither","",16,"sharon_harvey_woman","delores_gleitman_deceased","much more left",1283,-2
"95","Consciousness",28,"male","white","college_some","none","none","Self-employed","no","0","USA","yes_only","independent","no","no","disagree_strong","disagree_strong","disagree_strong","disagree_strong","neither","",17,"delores_gleitman_deceased","todd_billingsley_man","much more right",1238,2
"96","Consciousness",28,"male","white","college_some","none","none","Self-employed","no","0","USA","yes_only","independent","no","no","disagree_strong","disagree_strong","disagree_strong","disagree_strong","neither","",18,"fetus","you","much more right",1377,2
"97","Consciousness",28,"male","white","college_some","none","none","Self-employed","no","0","USA","yes_only","independent","no","no","disagree_strong","disagree_strong","disagree_strong","disagree_strong","neither","",19,"sharon_harvey_woman","kismet_robot","much more left",1209,-2
"98","Consciousness",28,"male","white","college_some","none","none","Self-employed","no","0","USA","yes_only","independent","no","no","disagree_strong","disagree_strong","disagree_strong","disagree_strong","neither","",20,"nicholas_gannon_baby","samantha_hill_girl","much more right",2431,2
"99","Consciousness",28,"male","white","college_some","none","none","Self-employed","no","0","USA","yes_only","independent","no","no","disagree_strong","disagree_strong","disagree_strong","disagree_strong","neither","",21,"fetus","sharon_harvey_woman","much more right",1223,2
"100","Consciousness",28,"male","white","college_some","none","none","Self-employed","no","0","USA","yes_only","independent","no","no","disagree_strong","disagree_strong","disagree_strong","disagree_strong","neither","",22,"green_frog","you","much more right",1398,2
"101","Consciousness",28,"male","white","college_some","none","none","Self-employed","no","0","USA","yes_only","independent","no","no","disagree_strong","disagree_strong","disagree_strong","disagree_strong","neither","",23,"god","sharon_harvey_woman","much more right",1434,2
"102","Consciousness",28,"male","white","college_some","none","none","Self-employed","no","0","USA","yes_only","independent","no","no","disagree_strong","disagree_strong","disagree_strong","disagree_strong","neither","",24,"gerald_schiff_pvs","delores_gleitman_deceased","slightly more left",9270,-1
"103","Consciousness",28,"male","white","college_some","none","none","Self-employed","no","0","USA","yes_only","independent","no","no","disagree_strong","disagree_strong","disagree_strong","disagree_strong","neither","",25,"toby_chimp","god","much more left",1997,-2
"104","Consciousness",28,"male","white","college_some","none","none","Self-employed","no","0","USA","yes_only","independent","no","no","disagree_strong","disagree_strong","disagree_strong","disagree_strong","neither","",26,"fetus","nicholas_gannon_baby","much more right",2881,2
"105","Consciousness",28,"male","white","college_some","none","none","Self-employed","no","0","USA","yes_only","independent","no","no","disagree_strong","disagree_strong","disagree_strong","disagree_strong","neither","",27,"kismet_robot","toby_chimp","much more right",1367,2
"106","Consciousness",28,"male","white","college_some","none","none","Self-employed","no","0","USA","yes_only","independent","no","no","disagree_strong","disagree_strong","disagree_strong","disagree_strong","neither","",28,"green_frog","nicholas_gannon_baby","much more right",3735,2
"107","Consciousness",28,"male","white","college_some","none","none","Self-employed","no","0","USA","yes_only","independent","no","no","disagree_strong","disagree_strong","disagree_strong","disagree_strong","neither","",29,"god","fetus","slightly more right",4274,1
"108","Consciousness",28,"male","white","college_some","none","none","Self-employed","no","0","USA","yes_only","independent","no","no","disagree_strong","disagree_strong","disagree_strong","disagree_strong","neither","",30,"sharon_harvey_woman","green_frog","much more left",2081,-2
"109","Consciousness",28,"male","white","college_some","none","none","Self-employed","no","0","USA","yes_only","independent","no","no","disagree_strong","disagree_strong","disagree_strong","disagree_strong","neither","",31,"god","charlie_dog","much more right",1245,2
"110","Consciousness",28,"male","white","college_some","none","none","Self-employed","no","0","USA","yes_only","independent","no","no","disagree_strong","disagree_strong","disagree_strong","disagree_strong","neither","",32,"charlie_dog","samantha_hill_girl","much more right",4701,2
"111","Consciousness",28,"male","white","college_some","none","none","Self-employed","no","0","USA","yes_only","independent","no","no","disagree_strong","disagree_strong","disagree_strong","disagree_strong","neither","",33,"sharon_harvey_woman","gerald_schiff_pvs","much more left",2986,-2
"112","Consciousness",28,"male","white","college_some","none","none","Self-employed","no","0","USA","yes_only","independent","no","no","disagree_strong","disagree_strong","disagree_strong","disagree_strong","neither","",34,"gerald_schiff_pvs","kismet_robot","slightly more left",3010,-1
"113","Consciousness",28,"male","white","college_some","none","none","Self-employed","no","0","USA","yes_only","independent","no","no","disagree_strong","disagree_strong","disagree_strong","disagree_strong","neither","",35,"todd_billingsley_man","nicholas_gannon_baby","much more left",2380,-2
"114","Consciousness",28,"male","white","college_some","none","none","Self-employed","no","0","USA","yes_only","independent","no","no","disagree_strong","disagree_strong","disagree_strong","disagree_strong","neither","",36,"todd_billingsley_man","sharon_harvey_woman","both equally",1354,0
"115","Consciousness",28,"male","white","college_some","none","none","Self-employed","no","0","USA","yes_only","independent","no","no","disagree_strong","disagree_strong","disagree_strong","disagree_strong","neither","",37,"kismet_robot","fetus","both equally",2823,0
"116","Consciousness",28,"male","white","college_some","none","none","Self-employed","no","0","USA","yes_only","independent","no","no","disagree_strong","disagree_strong","disagree_strong","disagree_strong","neither","",38,"charlie_dog","nicholas_gannon_baby","both equally",5320,0
"117","Consciousness",28,"male","white","college_some","none","none","Self-employed","no","0","USA","yes_only","independent","no","no","disagree_strong","disagree_strong","disagree_strong","disagree_strong","neither","",39,"green_frog","god","slightly more left",4213,-1
"118","Consciousness",28,"male","white","college_some","none","none","Self-employed","no","0","USA","yes_only","independent","no","no","disagree_strong","disagree_strong","disagree_strong","disagree_strong","neither","",40,"sharon_harvey_woman","charlie_dog","much more left",1144,-2
"119","Consciousness",28,"male","white","college_some","none","none","Self-employed","no","0","USA","yes_only","independent","no","no","disagree_strong","disagree_strong","disagree_strong","disagree_strong","neither","",41,"nicholas_gannon_baby","gerald_schiff_pvs","slightly more left",3716,-1
"120","Consciousness",28,"male","white","college_some","none","none","Self-employed","no","0","USA","yes_only","independent","no","no","disagree_strong","disagree_strong","disagree_strong","disagree_strong","neither","",42,"god","kismet_robot","slightly more right",2275,1
"121","Consciousness",28,"male","white","college_some","none","none","Self-employed","no","0","USA","yes_only","independent","no","no","disagree_strong","disagree_strong","disagree_strong","disagree_strong","neither","",43,"delores_gleitman_deceased","charlie_dog","much more right",2214,2
"122","Consciousness",28,"male","white","college_some","none","none","Self-employed","no","0","USA","yes_only","independent","no","no","disagree_strong","disagree_strong","disagree_strong","disagree_strong","neither","",44,"todd_billingsley_man","charlie_dog","much more left",1293,-2
"123","Consciousness",28,"male","white","college_some","none","none","Self-employed","no","0","USA","yes_only","independent","no","no","disagree_strong","disagree_strong","disagree_strong","disagree_strong","neither","",45,"gerald_schiff_pvs","god","slightly more left",1920,-1
"124","Consciousness",28,"male","white","college_some","none","none","Self-employed","no","0","USA","yes_only","independent","no","no","disagree_strong","disagree_strong","disagree_strong","disagree_strong","neither","",46,"nicholas_gannon_baby","delores_gleitman_deceased","slightly more left",1508,-1
"125","Consciousness",28,"male","white","college_some","none","none","Self-employed","no","0","USA","yes_only","independent","no","no","disagree_strong","disagree_strong","disagree_strong","disagree_strong","neither","",47,"fetus","gerald_schiff_pvs","both equally",3218,0
"126","Consciousness",28,"male","white","college_some","none","none","Self-employed","no","0","USA","yes_only","independent","no","no","disagree_strong","disagree_strong","disagree_strong","disagree_strong","neither","",48,"kismet_robot","charlie_dog","slightly more right",2948,1
"127","Consciousness",28,"male","white","college_some","none","none","Self-employed","no","0","USA","yes_only","independent","no","no","disagree_strong","disagree_strong","disagree_strong","disagree_strong","neither","",49,"samantha_hill_girl","kismet_robot","slightly more left",1620,-1
"128","Consciousness",28,"male","white","college_some","none","none","Self-employed","no","0","USA","yes_only","independent","no","no","disagree_strong","disagree_strong","disagree_strong","disagree_strong","neither","",50,"you","kismet_robot","much more left",1286,-2
"129","Consciousness",28,"male","white","college_some","none","none","Self-employed","no","0","USA","yes_only","independent","no","no","disagree_strong","disagree_strong","disagree_strong","disagree_strong","neither","",51,"sharon_harvey_woman","you","both equally",1853,0
"130","Consciousness",28,"male","white","college_some","none","none","Self-employed","no","0","USA","yes_only","independent","no","no","disagree_strong","disagree_strong","disagree_strong","disagree_strong","neither","",52,"samantha_hill_girl","fetus","much more left",1916,-2
"131","Consciousness",28,"male","white","college_some","none","none","Self-employed","no","0","USA","yes_only","independent","no","no","disagree_strong","disagree_strong","disagree_strong","disagree_strong","neither","",53,"you","toby_chimp","much more left",1671,-2
"132","Consciousness",28,"male","white","college_some","none","none","Self-employed","no","0","USA","yes_only","independent","no","no","disagree_strong","disagree_strong","disagree_strong","disagree_strong","neither","",54,"sharon_harvey_woman","toby_chimp","much more left",1007,-2
"133","Consciousness",28,"male","white","college_some","none","none","Self-employed","no","0","USA","yes_only","independent","no","no","disagree_strong","disagree_strong","disagree_strong","disagree_strong","neither","",55,"toby_chimp","todd_billingsley_man","much more right",1022,2
"134","Consciousness",28,"male","white","college_some","none","none","Self-employed","no","0","USA","yes_only","independent","no","no","disagree_strong","disagree_strong","disagree_strong","disagree_strong","neither","",56,"god","delores_gleitman_deceased","both equally",2540,0
"135","Consciousness",28,"male","white","college_some","none","none","Self-employed","no","0","USA","yes_only","independent","no","no","disagree_strong","disagree_strong","disagree_strong","disagree_strong","neither","",57,"green_frog","kismet_robot","slightly more left",4404,-1
"136","Consciousness",28,"male","white","college_some","none","none","Self-employed","no","0","USA","yes_only","independent","no","no","disagree_strong","disagree_strong","disagree_strong","disagree_strong","neither","",58,"todd_billingsley_man","samantha_hill_girl","much more left",1224,-2
"137","Consciousness",28,"male","white","college_some","none","none","Self-employed","no","0","USA","yes_only","independent","no","no","disagree_strong","disagree_strong","disagree_strong","disagree_strong","neither","",59,"sharon_harvey_woman","nicholas_gannon_baby","much more left",931,-2
"138","Consciousness",28,"male","white","college_some","none","none","Self-employed","no","0","USA","yes_only","independent","no","no","disagree_strong","disagree_strong","disagree_strong","disagree_strong","neither","",60,"gerald_schiff_pvs","toby_chimp","slightly more right",3765,1
"139","Consciousness",28,"male","white","college_some","none","none","Self-employed","no","0","USA","yes_only","independent","no","no","disagree_strong","disagree_strong","disagree_strong","disagree_strong","neither","",61,"delores_gleitman_deceased","toby_chimp","much more right",1293,2
"140","Consciousness",28,"male","white","college_some","none","none","Self-employed","no","0","USA","yes_only","independent","no","no","disagree_strong","disagree_strong","disagree_strong","disagree_strong","neither","",62,"charlie_dog","green_frog","slightly more left",1628,-1
"141","Consciousness",28,"male","white","college_some","none","none","Self-employed","no","0","USA","yes_only","independent","no","no","disagree_strong","disagree_strong","disagree_strong","disagree_strong","neither","",63,"god","samantha_hill_girl","much more right",1566,2
"142","Consciousness",28,"male","white","college_some","none","none","Self-employed","no","0","USA","yes_only","independent","no","no","disagree_strong","disagree_strong","disagree_strong","disagree_strong","neither","",64,"todd_billingsley_man","you","both equally",1712,0
"143","Consciousness",28,"male","white","college_some","none","none","Self-employed","no","0","USA","yes_only","independent","no","no","disagree_strong","disagree_strong","disagree_strong","disagree_strong","neither","",65,"you","nicholas_gannon_baby","much more left",1370,-2
"144","Consciousness",28,"male","white","college_some","none","none","Self-employed","no","0","USA","yes_only","independent","no","no","disagree_strong","disagree_strong","disagree_strong","disagree_strong","neither","",66,"god","todd_billingsley_man","much more right",1127,2
"145","Consciousness",28,"male","white","college_some","none","none","Self-employed","no","0","USA","yes_only","independent","no","no","disagree_strong","disagree_strong","disagree_strong","disagree_strong","neither","",67,"nicholas_gannon_baby","kismet_robot","slightly more left",1768,-1
"146","Consciousness",28,"male","white","college_some","none","none","Self-employed","no","0","USA","yes_only","independent","no","no","disagree_strong","disagree_strong","disagree_strong","disagree_strong","neither","",68,"you","gerald_schiff_pvs","much more left",1271,-2
"147","Consciousness",28,"male","white","college_some","none","none","Self-employed","no","0","USA","yes_only","independent","no","no","disagree_strong","disagree_strong","disagree_strong","disagree_strong","neither","",69,"delores_gleitman_deceased","kismet_robot","slightly more right",1432,1
"148","Consciousness",28,"male","white","college_some","none","none","Self-employed","no","0","USA","yes_only","independent","no","no","disagree_strong","disagree_strong","disagree_strong","disagree_strong","neither","",70,"nicholas_gannon_baby","god","slightly more left",1720,-1
"149","Consciousness",28,"male","white","college_some","none","none","Self-employed","no","0","USA","yes_only","independent","no","no","disagree_strong","disagree_strong","disagree_strong","disagree_strong","neither","",71,"green_frog","fetus","slightly more left",3809,-1
"150","Consciousness",28,"male","white","college_some","none","none","Self-employed","no","0","USA","yes_only","independent","no","no","disagree_strong","disagree_strong","disagree_strong","disagree_strong","neither","",72,"green_frog","todd_billingsley_man","much more right",1086,2
"151","Consciousness",28,"male","white","college_some","none","none","Self-employed","no","0","USA","yes_only","independent","no","no","disagree_strong","disagree_strong","disagree_strong","disagree_strong","neither","",73,"green_frog","gerald_schiff_pvs","slightly more left",1834,-1
"152","Consciousness",28,"male","white","college_some","none","none","Self-employed","no","0","USA","yes_only","independent","no","no","disagree_strong","disagree_strong","disagree_strong","disagree_strong","neither","",74,"samantha_hill_girl","sharon_harvey_woman","much more right",1235,2
"153","Consciousness",28,"male","white","college_some","none","none","Self-employed","no","0","USA","yes_only","independent","no","no","disagree_strong","disagree_strong","disagree_strong","disagree_strong","neither","",75,"green_frog","delores_gleitman_deceased","slightly more left",1532,-1
"154","Consciousness",28,"male","white","college_some","none","none","Self-employed","no","0","USA","yes_only","independent","no","no","disagree_strong","disagree_strong","disagree_strong","disagree_strong","neither","",76,"fetus","toby_chimp","slightly more right",1882,1
"155","Consciousness",28,"male","white","college_some","none","none","Self-employed","no","0","USA","yes_only","independent","no","no","disagree_strong","disagree_strong","disagree_strong","disagree_strong","neither","",77,"you","god","much more left",1155,-2
"156","Consciousness",28,"male","white","college_some","none","none","Self-employed","no","0","USA","yes_only","independent","no","no","disagree_strong","disagree_strong","disagree_strong","disagree_strong","neither","",78,"you","charlie_dog","much more left",2232,-2
"157","Hunger",27,"female","white","college_bachDegree","none","none","CNA","no","0","USA","yes_only","democrat","yes","no","disagree_strong","disagree_strong","neither","disagree_strong","agree_moderate","",1,"nicholas_gannon_baby","kismet_robot","much more left",2357,-2
"158","Hunger",27,"female","white","college_bachDegree","none","none","CNA","no","0","USA","yes_only","democrat","yes","no","disagree_strong","disagree_strong","neither","disagree_strong","agree_moderate","",2,"todd_billingsley_man","gerald_schiff_pvs","much more left",1577,-2
"159","Hunger",27,"female","white","college_bachDegree","none","none","CNA","no","0","USA","yes_only","democrat","yes","no","disagree_strong","disagree_strong","neither","disagree_strong","agree_moderate","",3,"samantha_hill_girl","gerald_schiff_pvs","much more left",853,-2
"160","Hunger",27,"female","white","college_bachDegree","none","none","CNA","no","0","USA","yes_only","democrat","yes","no","disagree_strong","disagree_strong","neither","disagree_strong","agree_moderate","",4,"charlie_dog","sharon_harvey_woman","both equally",2280,0
"161","Hunger",27,"female","white","college_bachDegree","none","none","CNA","no","0","USA","yes_only","democrat","yes","no","disagree_strong","disagree_strong","neither","disagree_strong","agree_moderate","",5,"sharon_harvey_woman","fetus","much more left",1611,-2
"162","Hunger",27,"female","white","college_bachDegree","none","none","CNA","no","0","USA","yes_only","democrat","yes","no","disagree_strong","disagree_strong","neither","disagree_strong","agree_moderate","",6,"kismet_robot","you","much more right",2164,2
"163","Hunger",27,"female","white","college_bachDegree","none","none","CNA","no","0","USA","yes_only","democrat","yes","no","disagree_strong","disagree_strong","neither","disagree_strong","agree_moderate","",7,"toby_chimp","todd_billingsley_man","both equally",1937,0
"164","Hunger",27,"female","white","college_bachDegree","none","none","CNA","no","0","USA","yes_only","democrat","yes","no","disagree_strong","disagree_strong","neither","disagree_strong","agree_moderate","",8,"sharon_harvey_woman","you","both equally",1269,0
"165","Hunger",27,"female","white","college_bachDegree","none","none","CNA","no","0","USA","yes_only","democrat","yes","no","disagree_strong","disagree_strong","neither","disagree_strong","agree_moderate","",9,"god","toby_chimp","much more right",1607,2
"166","Hunger",27,"female","white","college_bachDegree","none","none","CNA","no","0","USA","yes_only","democrat","yes","no","disagree_strong","disagree_strong","neither","disagree_strong","agree_moderate","",10,"samantha_hill_girl","sharon_harvey_woman","both equally",1328,0
"167","Hunger",27,"female","white","college_bachDegree","none","none","CNA","no","0","USA","yes_only","democrat","yes","no","disagree_strong","disagree_strong","neither","disagree_strong","agree_moderate","",11,"gerald_schiff_pvs","nicholas_gannon_baby","much more right",1241,2
"168","Hunger",27,"female","white","college_bachDegree","none","none","CNA","no","0","USA","yes_only","democrat","yes","no","disagree_strong","disagree_strong","neither","disagree_strong","agree_moderate","",12,"charlie_dog","toby_chimp","both equally",1571,0
"169","Hunger",27,"female","white","college_bachDegree","none","none","CNA","no","0","USA","yes_only","democrat","yes","no","disagree_strong","disagree_strong","neither","disagree_strong","agree_moderate","",13,"samantha_hill_girl","delores_gleitman_deceased","much more left",1354,-2
"170","Hunger",27,"female","white","college_bachDegree","none","none","CNA","no","0","USA","yes_only","democrat","yes","no","disagree_strong","disagree_strong","neither","disagree_strong","agree_moderate","",14,"you","gerald_schiff_pvs","much more left",2357,-2
"171","Hunger",27,"female","white","college_bachDegree","none","none","CNA","no","0","USA","yes_only","democrat","yes","no","disagree_strong","disagree_strong","neither","disagree_strong","agree_moderate","",15,"delores_gleitman_deceased","fetus","much more right",3463,2
"172","Hunger",27,"female","white","college_bachDegree","none","none","CNA","no","0","USA","yes_only","democrat","yes","no","disagree_strong","disagree_strong","neither","disagree_strong","agree_moderate","",16,"fetus","kismet_robot","much more left",2322,-2
"173","Hunger",27,"female","white","college_bachDegree","none","none","CNA","no","0","USA","yes_only","democrat","yes","no","disagree_strong","disagree_strong","neither","disagree_strong","agree_moderate","",17,"nicholas_gannon_baby","green_frog","both equally",2241,0
"174","Hunger",27,"female","white","college_bachDegree","none","none","CNA","no","0","USA","yes_only","democrat","yes","no","disagree_strong","disagree_strong","neither","disagree_strong","agree_moderate","",18,"god","sharon_harvey_woman","much more right",1268,2
"175","Hunger",27,"female","white","college_bachDegree","none","none","CNA","no","0","USA","yes_only","democrat","yes","no","disagree_strong","disagree_strong","neither","disagree_strong","agree_moderate","",19,"charlie_dog","nicholas_gannon_baby","both equally",1492,0
"176","Hunger",27,"female","white","college_bachDegree","none","none","CNA","no","0","USA","yes_only","democrat","yes","no","disagree_strong","disagree_strong","neither","disagree_strong","agree_moderate","",20,"you","nicholas_gannon_baby","both equally",830,0
"177","Hunger",27,"female","white","college_bachDegree","none","none","CNA","no","0","USA","yes_only","democrat","yes","no","disagree_strong","disagree_strong","neither","disagree_strong","agree_moderate","",21,"green_frog","toby_chimp","both equally",1992,0
"178","Hunger",27,"female","white","college_bachDegree","none","none","CNA","no","0","USA","yes_only","democrat","yes","no","disagree_strong","disagree_strong","neither","disagree_strong","agree_moderate","",22,"todd_billingsley_man","sharon_harvey_woman","both equally",844,0
"179","Hunger",27,"female","white","college_bachDegree","none","none","CNA","no","0","USA","yes_only","democrat","yes","no","disagree_strong","disagree_strong","neither","disagree_strong","agree_moderate","",23,"todd_billingsley_man","kismet_robot","much more left",1208,-2
"180","Hunger",27,"female","white","college_bachDegree","none","none","CNA","no","0","USA","yes_only","democrat","yes","no","disagree_strong","disagree_strong","neither","disagree_strong","agree_moderate","",24,"fetus","god","much more left",2169,-2
"181","Hunger",27,"female","white","college_bachDegree","none","none","CNA","no","0","USA","yes_only","democrat","yes","no","disagree_strong","disagree_strong","neither","disagree_strong","agree_moderate","",25,"fetus","gerald_schiff_pvs","both equally",1676,0
"182","Hunger",27,"female","white","college_bachDegree","none","none","CNA","no","0","USA","yes_only","democrat","yes","no","disagree_strong","disagree_strong","neither","disagree_strong","agree_moderate","",26,"gerald_schiff_pvs","toby_chimp","much more right",1869,2
"183","Hunger",27,"female","white","college_bachDegree","none","none","CNA","no","0","USA","yes_only","democrat","yes","no","disagree_strong","disagree_strong","neither","disagree_strong","agree_moderate","",27,"green_frog","todd_billingsley_man","both equally",2252,0
"184","Hunger",27,"female","white","college_bachDegree","none","none","CNA","no","0","USA","yes_only","democrat","yes","no","disagree_strong","disagree_strong","neither","disagree_strong","agree_moderate","",28,"samantha_hill_girl","green_frog","both equally",1062,0
"185","Hunger",27,"female","white","college_bachDegree","none","none","CNA","no","0","USA","yes_only","democrat","yes","no","disagree_strong","disagree_strong","neither","disagree_strong","agree_moderate","",29,"green_frog","kismet_robot","much more left",1137,-2
"186","Hunger",27,"female","white","college_bachDegree","none","none","CNA","no","0","USA","yes_only","democrat","yes","no","disagree_strong","disagree_strong","neither","disagree_strong","agree_moderate","",30,"you","todd_billingsley_man","both equally",915,0
"187","Hunger",27,"female","white","college_bachDegree","none","none","CNA","no","0","USA","yes_only","democrat","yes","no","disagree_strong","disagree_strong","neither","disagree_strong","agree_moderate","",31,"sharon_harvey_woman","nicholas_gannon_baby","both equally",1075,0
"188","Hunger",27,"female","white","college_bachDegree","none","none","CNA","no","0","USA","yes_only","democrat","yes","no","disagree_strong","disagree_strong","neither","disagree_strong","agree_moderate","",32,"kismet_robot","toby_chimp","much more right",1433,2
"189","Hunger",27,"female","white","college_bachDegree","none","none","CNA","no","0","USA","yes_only","democrat","yes","no","disagree_strong","disagree_strong","neither","disagree_strong","agree_moderate","",33,"delores_gleitman_deceased","you","much more right",1219,2
"190","Hunger",27,"female","white","college_bachDegree","none","none","CNA","no","0","USA","yes_only","democrat","yes","no","disagree_strong","disagree_strong","neither","disagree_strong","agree_moderate","",34,"kismet_robot","sharon_harvey_woman","much more right",1039,2
"191","Hunger",27,"female","white","college_bachDegree","none","none","CNA","no","0","USA","yes_only","democrat","yes","no","disagree_strong","disagree_strong","neither","disagree_strong","agree_moderate","",35,"samantha_hill_girl","kismet_robot","much more left",962,-2
"192","Hunger",27,"female","white","college_bachDegree","none","none","CNA","no","0","USA","yes_only","democrat","yes","no","disagree_strong","disagree_strong","neither","disagree_strong","agree_moderate","",36,"god","nicholas_gannon_baby","much more right",1057,2
"193","Hunger",27,"female","white","college_bachDegree","none","none","CNA","no","0","USA","yes_only","democrat","yes","no","disagree_strong","disagree_strong","neither","disagree_strong","agree_moderate","",37,"delores_gleitman_deceased","charlie_dog","much more right",1299,2
"194","Hunger",27,"female","white","college_bachDegree","none","none","CNA","no","0","USA","yes_only","democrat","yes","no","disagree_strong","disagree_strong","neither","disagree_strong","agree_moderate","",38,"charlie_dog","fetus","much more left",1376,-2
"195","Hunger",27,"female","white","college_bachDegree","none","none","CNA","no","0","USA","yes_only","democrat","yes","no","disagree_strong","disagree_strong","neither","disagree_strong","agree_moderate","",39,"charlie_dog","samantha_hill_girl","both equally",1444,0
"196","Hunger",27,"female","white","college_bachDegree","none","none","CNA","no","0","USA","yes_only","democrat","yes","no","disagree_strong","disagree_strong","neither","disagree_strong","agree_moderate","",40,"delores_gleitman_deceased","nicholas_gannon_baby","much more right",1194,2
"197","Hunger",27,"female","white","college_bachDegree","none","none","CNA","no","0","USA","yes_only","democrat","yes","no","disagree_strong","disagree_strong","neither","disagree_strong","agree_moderate","",41,"gerald_schiff_pvs","delores_gleitman_deceased","much more left",1790,-2
"198","Hunger",27,"female","white","college_bachDegree","none","none","CNA","no","0","USA","yes_only","democrat","yes","no","disagree_strong","disagree_strong","neither","disagree_strong","agree_moderate","",42,"todd_billingsley_man","charlie_dog","both equally",1465,0
"199","Hunger",27,"female","white","college_bachDegree","none","none","CNA","no","0","USA","yes_only","democrat","yes","no","disagree_strong","disagree_strong","neither","disagree_strong","agree_moderate","",43,"samantha_hill_girl","todd_billingsley_man","both equally",794,0
"200","Hunger",27,"female","white","college_bachDegree","none","none","CNA","no","0","USA","yes_only","democrat","yes","no","disagree_strong","disagree_strong","neither","disagree_strong","agree_moderate","",44,"gerald_schiff_pvs","kismet_robot","both equally",2643,0
"201","Hunger",27,"female","white","college_bachDegree","none","none","CNA","no","0","USA","yes_only","democrat","yes","no","disagree_strong","disagree_strong","neither","disagree_strong","agree_moderate","",45,"todd_billingsley_man","nicholas_gannon_baby","both equally",1971,0
"202","Hunger",27,"female","white","college_bachDegree","none","none","CNA","no","0","USA","yes_only","democrat","yes","no","disagree_strong","disagree_strong","neither","disagree_strong","agree_moderate","",46,"fetus","nicholas_gannon_baby","much more right",1042,2
"203","Hunger",27,"female","white","college_bachDegree","none","none","CNA","no","0","USA","yes_only","democrat","yes","no","disagree_strong","disagree_strong","neither","disagree_strong","agree_moderate","",47,"you","fetus","much more left",1584,-2
"204","Hunger",27,"female","white","college_bachDegree","none","none","CNA","no","0","USA","yes_only","democrat","yes","no","disagree_strong","disagree_strong","neither","disagree_strong","agree_moderate","",48,"samantha_hill_girl","fetus","much more left",1045,-2
"205","Hunger",27,"female","white","college_bachDegree","none","none","CNA","no","0","USA","yes_only","democrat","yes","no","disagree_strong","disagree_strong","neither","disagree_strong","agree_moderate","",49,"fetus","todd_billingsley_man","much more right",1382,2
"206","Hunger",27,"female","white","college_bachDegree","none","none","CNA","no","0","USA","yes_only","democrat","yes","no","disagree_strong","disagree_strong","neither","disagree_strong","agree_moderate","",50,"sharon_harvey_woman","delores_gleitman_deceased","much more left",1886,-2
"207","Hunger",27,"female","white","college_bachDegree","none","none","CNA","no","0","USA","yes_only","democrat","yes","no","disagree_strong","disagree_strong","neither","disagree_strong","agree_moderate","",51,"god","gerald_schiff_pvs","much more right",2690,2
"208","Hunger",27,"female","white","college_bachDegree","none","none","CNA","no","0","USA","yes_only","democrat","yes","no","disagree_strong","disagree_strong","neither","disagree_strong","agree_moderate","",52,"delores_gleitman_deceased","todd_billingsley_man","much more right",1090,2
"209","Hunger",27,"female","white","college_bachDegree","none","none","CNA","no","0","USA","yes_only","democrat","yes","no","disagree_strong","disagree_strong","neither","disagree_strong","agree_moderate","",53,"gerald_schiff_pvs","sharon_harvey_woman","much more right",1430,2
"210","Hunger",27,"female","white","college_bachDegree","none","none","CNA","no","0","USA","yes_only","democrat","yes","no","disagree_strong","disagree_strong","neither","disagree_strong","agree_moderate","",54,"green_frog","you","both equally",1647,0
"211","Hunger",27,"female","white","college_bachDegree","none","none","CNA","no","0","USA","yes_only","democrat","yes","no","disagree_strong","disagree_strong","neither","disagree_strong","agree_moderate","",55,"kismet_robot","charlie_dog","much more right",1364,2
"212","Hunger",27,"female","white","college_bachDegree","none","none","CNA","no","0","USA","yes_only","democrat","yes","no","disagree_strong","disagree_strong","neither","disagree_strong","agree_moderate","",56,"god","green_frog","much more right",1372,2
"213","Hunger",27,"female","white","college_bachDegree","none","none","CNA","no","0","USA","yes_only","democrat","yes","no","disagree_strong","disagree_strong","neither","disagree_strong","agree_moderate","",57,"toby_chimp","samantha_hill_girl","both equally",1818,0
"214","Hunger",27,"female","white","college_bachDegree","none","none","CNA","no","0","USA","yes_only","democrat","yes","no","disagree_strong","disagree_strong","neither","disagree_strong","agree_moderate","",58,"god","delores_gleitman_deceased","both equally",2010,0
"215","Hunger",27,"female","white","college_bachDegree","none","none","CNA","no","0","USA","yes_only","democrat","yes","no","disagree_strong","disagree_strong","neither","disagree_strong","agree_moderate","",59,"sharon_harvey_woman","green_frog","both equally",2022,0
"216","Hunger",27,"female","white","college_bachDegree","none","none","CNA","no","0","USA","yes_only","democrat","yes","no","disagree_strong","disagree_strong","neither","disagree_strong","agree_moderate","",60,"toby_chimp","nicholas_gannon_baby","slightly more left",1386,-1
"217","Hunger",27,"female","white","college_bachDegree","none","none","CNA","no","0","USA","yes_only","democrat","yes","no","disagree_strong","disagree_strong","neither","disagree_strong","agree_moderate","",61,"kismet_robot","god","both equally",2198,0
"218","Hunger",27,"female","white","college_bachDegree","none","none","CNA","no","0","USA","yes_only","democrat","yes","no","disagree_strong","disagree_strong","neither","disagree_strong","agree_moderate","",62,"green_frog","charlie_dog","both equally",862,0
"219","Hunger",27,"female","white","college_bachDegree","none","none","CNA","no","0","USA","yes_only","democrat","yes","no","disagree_strong","disagree_strong","neither","disagree_strong","agree_moderate","",63,"gerald_schiff_pvs","charlie_dog","much more right",1005,2
"220","Hunger",27,"female","white","college_bachDegree","none","none","CNA","no","0","USA","yes_only","democrat","yes","no","disagree_strong","disagree_strong","neither","disagree_strong","agree_moderate","",64,"you","toby_chimp","both equally",1653,0
"221","Hunger",27,"female","white","college_bachDegree","none","none","CNA","no","0","USA","yes_only","democrat","yes","no","disagree_strong","disagree_strong","neither","disagree_strong","agree_moderate","",65,"god","todd_billingsley_man","much more right",1025,2
"222","Hunger",27,"female","white","college_bachDegree","none","none","CNA","no","0","USA","yes_only","democrat","yes","no","disagree_strong","disagree_strong","neither","disagree_strong","agree_moderate","",66,"delores_gleitman_deceased","toby_chimp","much more right",1020,2
"223","Hunger",27,"female","white","college_bachDegree","none","none","CNA","no","0","USA","yes_only","democrat","yes","no","disagree_strong","disagree_strong","neither","disagree_strong","agree_moderate","",67,"charlie_dog","god","much more left",1151,-2
"224","Hunger",27,"female","white","college_bachDegree","none","none","CNA","no","0","USA","yes_only","democrat","yes","no","disagree_strong","disagree_strong","neither","disagree_strong","agree_moderate","",68,"samantha_hill_girl","god","much more left",1026,-2
"225","Hunger",27,"female","white","college_bachDegree","none","none","CNA","no","0","USA","yes_only","democrat","yes","no","disagree_strong","disagree_strong","neither","disagree_strong","agree_moderate","",69,"fetus","green_frog","much more right",1693,2
"226","Hunger",27,"female","white","college_bachDegree","none","none","CNA","no","0","USA","yes_only","democrat","yes","no","disagree_strong","disagree_strong","neither","disagree_strong","agree_moderate","",70,"charlie_dog","you","both equally",1287,0
"227","Hunger",27,"female","white","college_bachDegree","none","none","CNA","no","0","USA","yes_only","democrat","yes","no","disagree_strong","disagree_strong","neither","disagree_strong","agree_moderate","",71,"toby_chimp","fetus","much more left",1064,-2
"228","Hunger",27,"female","white","college_bachDegree","none","none","CNA","no","0","USA","yes_only","democrat","yes","no","disagree_strong","disagree_strong","neither","disagree_strong","agree_moderate","",72,"delores_gleitman_deceased","kismet_robot","both equally",1774,0
"229","Hunger",27,"female","white","college_bachDegree","none","none","CNA","no","0","USA","yes_only","democrat","yes","no","disagree_strong","disagree_strong","neither","disagree_strong","agree_moderate","",73,"delores_gleitman_deceased","green_frog","much more right",1295,2
"230","Hunger",27,"female","white","college_bachDegree","none","none","CNA","no","0","USA","yes_only","democrat","yes","no","disagree_strong","disagree_strong","neither","disagree_strong","agree_moderate","",74,"nicholas_gannon_baby","samantha_hill_girl","both equally",952,0
"231","Hunger",27,"female","white","college_bachDegree","none","none","CNA","no","0","USA","yes_only","democrat","yes","no","disagree_strong","disagree_strong","neither","disagree_strong","agree_moderate","",75,"you","samantha_hill_girl","both equally",1384,0
"232","Hunger",27,"female","white","college_bachDegree","none","none","CNA","no","0","USA","yes_only","democrat","yes","no","disagree_strong","disagree_strong","neither","disagree_strong","agree_moderate","",76,"green_frog","gerald_schiff_pvs","much more left",1571,-2
"233","Hunger",27,"female","white","college_bachDegree","none","none","CNA","no","0","USA","yes_only","democrat","yes","no","disagree_strong","disagree_strong","neither","disagree_strong","agree_moderate","",77,"sharon_harvey_woman","toby_chimp","both equally",1140,0
"234","Hunger",27,"female","white","college_bachDegree","none","none","CNA","no","0","USA","yes_only","democrat","yes","no","disagree_strong","disagree_strong","neither","disagree_strong","agree_moderate","",78,"god","you","much more right",909,2
"235","Emotion Recognition",25,"male","hispanicLatino","hs_diploma","christianity_catholic","christianity_catholic","delivery man","no","0","USA","yes_only","democrat","no","no","agree_little","agree_little","neither","agree_moderate","agree_moderate","Thank you",1,"delores_gleitman_deceased","todd_billingsley_man","much more right",5549,2
"236","Emotion Recognition",25,"male","hispanicLatino","hs_diploma","christianity_catholic","christianity_catholic","delivery man","no","0","USA","yes_only","democrat","no","no","agree_little","agree_little","neither","agree_moderate","agree_moderate","Thank you",2,"kismet_robot","charlie_dog","slightly more right",2941,1
"237","Emotion Recognition",25,"male","hispanicLatino","hs_diploma","christianity_catholic","christianity_catholic","delivery man","no","0","USA","yes_only","democrat","no","no","agree_little","agree_little","neither","agree_moderate","agree_moderate","Thank you",3,"fetus","todd_billingsley_man","much more right",1668,2
"238","Emotion Recognition",25,"male","hispanicLatino","hs_diploma","christianity_catholic","christianity_catholic","delivery man","no","0","USA","yes_only","democrat","no","no","agree_little","agree_little","neither","agree_moderate","agree_moderate","Thank you",4,"samantha_hill_girl","nicholas_gannon_baby","much more left",1362,-2
"239","Emotion Recognition",25,"male","hispanicLatino","hs_diploma","christianity_catholic","christianity_catholic","delivery man","no","0","USA","yes_only","democrat","no","no","agree_little","agree_little","neither","agree_moderate","agree_moderate","Thank you",5,"god","green_frog","slightly more right",4101,1
"240","Emotion Recognition",25,"male","hispanicLatino","hs_diploma","christianity_catholic","christianity_catholic","delivery man","no","0","USA","yes_only","democrat","no","no","agree_little","agree_little","neither","agree_moderate","agree_moderate","Thank you",6,"kismet_robot","delores_gleitman_deceased","slightly more left",1912,-1
"241","Emotion Recognition",25,"male","hispanicLatino","hs_diploma","christianity_catholic","christianity_catholic","delivery man","no","0","USA","yes_only","democrat","no","no","agree_little","agree_little","neither","agree_moderate","agree_moderate","Thank you",7,"kismet_robot","gerald_schiff_pvs","slightly more right",2545,1
"242","Emotion Recognition",25,"male","hispanicLatino","hs_diploma","christianity_catholic","christianity_catholic","delivery man","no","0","USA","yes_only","democrat","no","no","agree_little","agree_little","neither","agree_moderate","agree_moderate","Thank you",8,"fetus","toby_chimp","much more right",1396,2
"243","Emotion Recognition",25,"male","hispanicLatino","hs_diploma","christianity_catholic","christianity_catholic","delivery man","no","0","USA","yes_only","democrat","no","no","agree_little","agree_little","neither","agree_moderate","agree_moderate","Thank you",9,"kismet_robot","todd_billingsley_man","much more right",1097,2
"244","Emotion Recognition",25,"male","hispanicLatino","hs_diploma","christianity_catholic","christianity_catholic","delivery man","no","0","USA","yes_only","democrat","no","no","agree_little","agree_little","neither","agree_moderate","agree_moderate","Thank you",10,"toby_chimp","charlie_dog","slightly more left",1898,-1
"245","Emotion Recognition",25,"male","hispanicLatino","hs_diploma","christianity_catholic","christianity_catholic","delivery man","no","0","USA","yes_only","democrat","no","no","agree_little","agree_little","neither","agree_moderate","agree_moderate","Thank you",11,"samantha_hill_girl","delores_gleitman_deceased","much more left",2047,-2
"246","Emotion Recognition",25,"male","hispanicLatino","hs_diploma","christianity_catholic","christianity_catholic","delivery man","no","0","USA","yes_only","democrat","no","no","agree_little","agree_little","neither","agree_moderate","agree_moderate","Thank you",12,"delores_gleitman_deceased","gerald_schiff_pvs","slightly more right",1377,1
"247","Emotion Recognition",25,"male","hispanicLatino","hs_diploma","christianity_catholic","christianity_catholic","delivery man","no","0","USA","yes_only","democrat","no","no","agree_little","agree_little","neither","agree_moderate","agree_moderate","Thank you",13,"you","todd_billingsley_man","much more right",1245,2
"248","Emotion Recognition",25,"male","hispanicLatino","hs_diploma","christianity_catholic","christianity_catholic","delivery man","no","0","USA","yes_only","democrat","no","no","agree_little","agree_little","neither","agree_moderate","agree_moderate","Thank you",14,"you","sharon_harvey_woman","much more right",978,2
"249","Emotion Recognition",25,"male","hispanicLatino","hs_diploma","christianity_catholic","christianity_catholic","delivery man","no","0","USA","yes_only","democrat","no","no","agree_little","agree_little","neither","agree_moderate","agree_moderate","Thank you",15,"fetus","you","both equally",1774,0
"250","Emotion Recognition",25,"male","hispanicLatino","hs_diploma","christianity_catholic","christianity_catholic","delivery man","no","0","USA","yes_only","democrat","no","no","agree_little","agree_little","neither","agree_moderate","agree_moderate","Thank you",16,"toby_chimp","you","much more left",1711,-2
"251","Emotion Recognition",25,"male","hispanicLatino","hs_diploma","christianity_catholic","christianity_catholic","delivery man","no","0","USA","yes_only","democrat","no","no","agree_little","agree_little","neither","agree_moderate","agree_moderate","Thank you",17,"delores_gleitman_deceased","nicholas_gannon_baby","slightly more right",1642,1
"252","Emotion Recognition",25,"male","hispanicLatino","hs_diploma","christianity_catholic","christianity_catholic","delivery man","no","0","USA","yes_only","democrat","no","no","agree_little","agree_little","neither","agree_moderate","agree_moderate","Thank you",18,"kismet_robot","samantha_hill_girl","much more right",1616,2
"253","Emotion Recognition",25,"male","hispanicLatino","hs_diploma","christianity_catholic","christianity_catholic","delivery man","no","0","USA","yes_only","democrat","no","no","agree_little","agree_little","neither","agree_moderate","agree_moderate","Thank you",19,"samantha_hill_girl","fetus","much more left",1300,-2
"254","Emotion Recognition",25,"male","hispanicLatino","hs_diploma","christianity_catholic","christianity_catholic","delivery man","no","0","USA","yes_only","democrat","no","no","agree_little","agree_little","neither","agree_moderate","agree_moderate","Thank you",20,"god","nicholas_gannon_baby","much more right",1018,2
"255","Emotion Recognition",25,"male","hispanicLatino","hs_diploma","christianity_catholic","christianity_catholic","delivery man","no","0","USA","yes_only","democrat","no","no","agree_little","agree_little","neither","agree_moderate","agree_moderate","Thank you",21,"samantha_hill_girl","you","much more left",1219,-2
"256","Emotion Recognition",25,"male","hispanicLatino","hs_diploma","christianity_catholic","christianity_catholic","delivery man","no","0","USA","yes_only","democrat","no","no","agree_little","agree_little","neither","agree_moderate","agree_moderate","Thank you",22,"kismet_robot","green_frog","slightly more right",1427,1
"257","Emotion Recognition",25,"male","hispanicLatino","hs_diploma","christianity_catholic","christianity_catholic","delivery man","no","0","USA","yes_only","democrat","no","no","agree_little","agree_little","neither","agree_moderate","agree_moderate","Thank you",23,"fetus","kismet_robot","much more left",2337,-2
"258","Emotion Recognition",25,"male","hispanicLatino","hs_diploma","christianity_catholic","christianity_catholic","delivery man","no","0","USA","yes_only","democrat","no","no","agree_little","agree_little","neither","agree_moderate","agree_moderate","Thank you",24,"delores_gleitman_deceased","fetus","much more right",1347,2
"259","Emotion Recognition",25,"male","hispanicLatino","hs_diploma","christianity_catholic","christianity_catholic","delivery man","no","0","USA","yes_only","democrat","no","no","agree_little","agree_little","neither","agree_moderate","agree_moderate","Thank you",25,"sharon_harvey_woman","toby_chimp","much more left",1893,-2
"260","Emotion Recognition",25,"male","hispanicLatino","hs_diploma","christianity_catholic","christianity_catholic","delivery man","no","0","USA","yes_only","democrat","no","no","agree_little","agree_little","neither","agree_moderate","agree_moderate","Thank you",26,"gerald_schiff_pvs","green_frog","slightly more left",2422,-1
"261","Emotion Recognition",25,"male","hispanicLatino","hs_diploma","christianity_catholic","christianity_catholic","delivery man","no","0","USA","yes_only","democrat","no","no","agree_little","agree_little","neither","agree_moderate","agree_moderate","Thank you",27,"sharon_harvey_woman","kismet_robot","much more left",1440,-2
"262","Emotion Recognition",25,"male","hispanicLatino","hs_diploma","christianity_catholic","christianity_catholic","delivery man","no","0","USA","yes_only","democrat","no","no","agree_little","agree_little","neither","agree_moderate","agree_moderate","Thank you",28,"samantha_hill_girl","toby_chimp","much more right",1549,2
"263","Emotion Recognition",25,"male","hispanicLatino","hs_diploma","christianity_catholic","christianity_catholic","delivery man","no","0","USA","yes_only","democrat","no","no","agree_little","agree_little","neither","agree_moderate","agree_moderate","Thank you",29,"nicholas_gannon_baby","green_frog","much more left",4862,-2
"264","Emotion Recognition",25,"male","hispanicLatino","hs_diploma","christianity_catholic","christianity_catholic","delivery man","no","0","USA","yes_only","democrat","no","no","agree_little","agree_little","neither","agree_moderate","agree_moderate","Thank you",30,"todd_billingsley_man","gerald_schiff_pvs","much more left",1070,-2
"265","Emotion Recognition",25,"male","hispanicLatino","hs_diploma","christianity_catholic","christianity_catholic","delivery man","no","0","USA","yes_only","democrat","no","no","agree_little","agree_little","neither","agree_moderate","agree_moderate","Thank you",31,"samantha_hill_girl","gerald_schiff_pvs","much more left",752,-2
"266","Emotion Recognition",25,"male","hispanicLatino","hs_diploma","christianity_catholic","christianity_catholic","delivery man","no","0","USA","yes_only","democrat","no","no","agree_little","agree_little","neither","agree_moderate","agree_moderate","Thank you",32,"gerald_schiff_pvs","nicholas_gannon_baby","much more right",1257,2
"267","Emotion Recognition",25,"male","hispanicLatino","hs_diploma","christianity_catholic","christianity_catholic","delivery man","no","0","USA","yes_only","democrat","no","no","agree_little","agree_little","neither","agree_moderate","agree_moderate","Thank you",33,"charlie_dog","sharon_harvey_woman","much more right",1861,2
"268","Emotion Recognition",25,"male","hispanicLatino","hs_diploma","christianity_catholic","christianity_catholic","delivery man","no","0","USA","yes_only","democrat","no","no","agree_little","agree_little","neither","agree_moderate","agree_moderate","Thank you",34,"green_frog","delores_gleitman_deceased","slightly more left",1646,-1
"269","Emotion Recognition",25,"male","hispanicLatino","hs_diploma","christianity_catholic","christianity_catholic","delivery man","no","0","USA","yes_only","democrat","no","no","agree_little","agree_little","neither","agree_moderate","agree_moderate","Thank you",35,"you","gerald_schiff_pvs","slightly more right",3607,1
"270","Emotion Recognition",25,"male","hispanicLatino","hs_diploma","christianity_catholic","christianity_catholic","delivery man","no","0","USA","yes_only","democrat","no","no","agree_little","agree_little","neither","agree_moderate","agree_moderate","Thank you",36,"toby_chimp","kismet_robot","much more left",2007,-2
"271","Emotion Recognition",25,"male","hispanicLatino","hs_diploma","christianity_catholic","christianity_catholic","delivery man","no","0","USA","yes_only","democrat","no","no","agree_little","agree_little","neither","agree_moderate","agree_moderate","Thank you",37,"green_frog","charlie_dog","much more right",1434,2
"272","Emotion Recognition",25,"male","hispanicLatino","hs_diploma","christianity_catholic","christianity_catholic","delivery man","no","0","USA","yes_only","democrat","no","no","agree_little","agree_little","neither","agree_moderate","agree_moderate","Thank you",38,"green_frog","todd_billingsley_man","much more right",972,2
"273","Emotion Recognition",25,"male","hispanicLatino","hs_diploma","christianity_catholic","christianity_catholic","delivery man","no","0","USA","yes_only","democrat","no","no","agree_little","agree_little","neither","agree_moderate","agree_moderate","Thank you",39,"delores_gleitman_deceased","you","both equally",2012,0
"274","Emotion Recognition",25,"male","hispanicLatino","hs_diploma","christianity_catholic","christianity_catholic","delivery man","no","0","USA","yes_only","democrat","no","no","agree_little","agree_little","neither","agree_moderate","agree_moderate","Thank you",40,"todd_billingsley_man","nicholas_gannon_baby","much more left",1805,-2
"275","Emotion Recognition",25,"male","hispanicLatino","hs_diploma","christianity_catholic","christianity_catholic","delivery man","no","0","USA","yes_only","democrat","no","no","agree_little","agree_little","neither","agree_moderate","agree_moderate","Thank you",41,"delores_gleitman_deceased","god","both equally",1293,0
"276","Emotion Recognition",25,"male","hispanicLatino","hs_diploma","christianity_catholic","christianity_catholic","delivery man","no","0","USA","yes_only","democrat","no","no","agree_little","agree_little","neither","agree_moderate","agree_moderate","Thank you",42,"green_frog","sharon_harvey_woman","much more right",2886,2
"277","Emotion Recognition",25,"male","hispanicLatino","hs_diploma","christianity_catholic","christianity_catholic","delivery man","no","0","USA","yes_only","democrat","no","no","agree_little","agree_little","neither","agree_moderate","agree_moderate","Thank you",43,"green_frog","samantha_hill_girl","much more right",1162,2
"278","Emotion Recognition",25,"male","hispanicLatino","hs_diploma","christianity_catholic","christianity_catholic","delivery man","no","0","USA","yes_only","democrat","no","no","agree_little","agree_little","neither","agree_moderate","agree_moderate","Thank you",44,"god","fetus","slightly more right",1430,1
"279","Emotion Recognition",25,"male","hispanicLatino","hs_diploma","christianity_catholic","christianity_catholic","delivery man","no","0","USA","yes_only","democrat","no","no","agree_little","agree_little","neither","agree_moderate","agree_moderate","Thank you",45,"sharon_harvey_woman","delores_gleitman_deceased","much more left",2742,-2
"280","Emotion Recognition",25,"male","hispanicLatino","hs_diploma","christianity_catholic","christianity_catholic","delivery man","no","0","USA","yes_only","democrat","no","no","agree_little","agree_little","neither","agree_moderate","agree_moderate","Thank you",46,"samantha_hill_girl","sharon_harvey_woman","much more right",2014,2
"281","Emotion Recognition",25,"male","hispanicLatino","hs_diploma","christianity_catholic","christianity_catholic","delivery man","no","0","USA","yes_only","democrat","no","no","agree_little","agree_little","neither","agree_moderate","agree_moderate","Thank you",47,"sharon_harvey_woman","fetus","much more left",2554,-2
"282","Emotion Recognition",25,"male","hispanicLatino","hs_diploma","christianity_catholic","christianity_catholic","delivery man","no","0","USA","yes_only","democrat","no","no","agree_little","agree_little","neither","agree_moderate","agree_moderate","Thank you",48,"gerald_schiff_pvs","fetus","both equally",3705,0
"283","Emotion Recognition",25,"male","hispanicLatino","hs_diploma","christianity_catholic","christianity_catholic","delivery man","no","0","USA","yes_only","democrat","no","no","agree_little","agree_little","neither","agree_moderate","agree_moderate","Thank you",49,"sharon_harvey_woman","nicholas_gannon_baby","much more left",1597,-2
"284","Emotion Recognition",25,"male","hispanicLatino","hs_diploma","christianity_catholic","christianity_catholic","delivery man","no","0","USA","yes_only","democrat","no","no","agree_little","agree_little","neither","agree_moderate","agree_moderate","Thank you",50,"charlie_dog","fetus","much more left",2582,-2
"285","Emotion Recognition",25,"male","hispanicLatino","hs_diploma","christianity_catholic","christianity_catholic","delivery man","no","0","USA","yes_only","democrat","no","no","agree_little","agree_little","neither","agree_moderate","agree_moderate","Thank you",51,"gerald_schiff_pvs","god","slightly more right",3870,1
"286","Emotion Recognition",25,"male","hispanicLatino","hs_diploma","christianity_catholic","christianity_catholic","delivery man","no","0","USA","yes_only","democrat","no","no","agree_little","agree_little","neither","agree_moderate","agree_moderate","Thank you",52,"kismet_robot","god","much more right",1292,2
"287","Emotion Recognition",25,"male","hispanicLatino","hs_diploma","christianity_catholic","christianity_catholic","delivery man","no","0","USA","yes_only","democrat","no","no","agree_little","agree_little","neither","agree_moderate","agree_moderate","Thank you",53,"you","god","much more right",1328,2
"288","Emotion Recognition",25,"male","hispanicLatino","hs_diploma","christianity_catholic","christianity_catholic","delivery man","no","0","USA","yes_only","democrat","no","no","agree_little","agree_little","neither","agree_moderate","agree_moderate","Thank you",54,"fetus","green_frog","slightly more left",4416,-1
"289","Emotion Recognition",25,"male","hispanicLatino","hs_diploma","christianity_catholic","christianity_catholic","delivery man","no","0","USA","yes_only","democrat","no","no","agree_little","agree_little","neither","agree_moderate","agree_moderate","Thank you",55,"kismet_robot","nicholas_gannon_baby","much more right",1529,2
"290","Emotion Recognition",25,"male","hispanicLatino","hs_diploma","christianity_catholic","christianity_catholic","delivery man","no","0","USA","yes_only","democrat","no","no","agree_little","agree_little","neither","agree_moderate","agree_moderate","Thank you",56,"fetus","nicholas_gannon_baby","much more right",1291,2
"291","Emotion Recognition",25,"male","hispanicLatino","hs_diploma","christianity_catholic","christianity_catholic","delivery man","no","0","USA","yes_only","democrat","no","no","agree_little","agree_little","neither","agree_moderate","agree_moderate","Thank you",57,"nicholas_gannon_baby","charlie_dog","slightly more right",2008,1
"292","Emotion Recognition",25,"male","hispanicLatino","hs_diploma","christianity_catholic","christianity_catholic","delivery man","no","0","USA","yes_only","democrat","no","no","agree_little","agree_little","neither","agree_moderate","agree_moderate","Thank you",58,"charlie_dog","delores_gleitman_deceased","slightly more left",3512,-1
"293","Emotion Recognition",25,"male","hispanicLatino","hs_diploma","christianity_catholic","christianity_catholic","delivery man","no","0","USA","yes_only","democrat","no","no","agree_little","agree_little","neither","agree_moderate","agree_moderate","Thank you",59,"delores_gleitman_deceased","toby_chimp","much more right",1978,2
"294","Emotion Recognition",25,"male","hispanicLatino","hs_diploma","christianity_catholic","christianity_catholic","delivery man","no","0","USA","yes_only","democrat","no","no","agree_little","agree_little","neither","agree_moderate","agree_moderate","Thank you",60,"you","nicholas_gannon_baby","much more right",1653,2
"295","Emotion Recognition",25,"male","hispanicLatino","hs_diploma","christianity_catholic","christianity_catholic","delivery man","no","0","USA","yes_only","democrat","no","no","agree_little","agree_little","neither","agree_moderate","agree_moderate","Thank you",61,"gerald_schiff_pvs","sharon_harvey_woman","much more right",1309,2
"296","Emotion Recognition",25,"male","hispanicLatino","hs_diploma","christianity_catholic","christianity_catholic","delivery man","no","0","USA","yes_only","democrat","no","no","agree_little","agree_little","neither","agree_moderate","agree_moderate","Thank you",62,"charlie_dog","you","slightly more left",1533,-1
"297","Emotion Recognition",25,"male","hispanicLatino","hs_diploma","christianity_catholic","christianity_catholic","delivery man","no","0","USA","yes_only","democrat","no","no","agree_little","agree_little","neither","agree_moderate","agree_moderate","Thank you",63,"you","kismet_robot","slightly more left",1237,-1
"298","Emotion Recognition",25,"male","hispanicLatino","hs_diploma","christianity_catholic","christianity_catholic","delivery man","no","0","USA","yes_only","democrat","no","no","agree_little","agree_little","neither","agree_moderate","agree_moderate","Thank you",64,"god","samantha_hill_girl","both equally",4165,0
"299","Emotion Recognition",25,"male","hispanicLatino","hs_diploma","christianity_catholic","christianity_catholic","delivery man","no","0","USA","yes_only","democrat","no","no","agree_little","agree_little","neither","agree_moderate","agree_moderate","Thank you",65,"gerald_schiff_pvs","toby_chimp","much more right",1854,2
"300","Emotion Recognition",25,"male","hispanicLatino","hs_diploma","christianity_catholic","christianity_catholic","delivery man","no","0","USA","yes_only","democrat","no","no","agree_little","agree_little","neither","agree_moderate","agree_moderate","Thank you",66,"you","green_frog","slightly more right",2687,1
"301","Emotion Recognition",25,"male","hispanicLatino","hs_diploma","christianity_catholic","christianity_catholic","delivery man","no","0","USA","yes_only","democrat","no","no","agree_little","agree_little","neither","agree_moderate","agree_moderate","Thank you",67,"todd_billingsley_man","sharon_harvey_woman","both equally",1894,0
"302","Emotion Recognition",25,"male","hispanicLatino","hs_diploma","christianity_catholic","christianity_catholic","delivery man","no","0","USA","yes_only","democrat","no","no","agree_little","agree_little","neither","agree_moderate","agree_moderate","Thank you",68,"todd_billingsley_man","charlie_dog","much more left",3057,-2
"303","Emotion Recognition",25,"male","hispanicLatino","hs_diploma","christianity_catholic","christianity_catholic","delivery man","no","0","USA","yes_only","democrat","no","no","agree_little","agree_little","neither","agree_moderate","agree_moderate","Thank you",69,"todd_billingsley_man","god","slightly more right",2245,1
"304","Emotion Recognition",25,"male","hispanicLatino","hs_diploma","christianity_catholic","christianity_catholic","delivery man","no","0","USA","yes_only","democrat","no","no","agree_little","agree_little","neither","agree_moderate","agree_moderate","Thank you",70,"samantha_hill_girl","todd_billingsley_man","much more right",1237,2
