"","subid","condition","age","gender","ethnicity","education","religionChild","job","maritalStatus","children","country","englishNative","politicalIdeology","studyMoralPhil","vegetarian","beliefGod","beliefAfterlife","beliefTradition","beliefLeader","comments","trialNum","leftCharacter","rightCharacter","response","rt","responseNum","log_rt","under_lower","over_upper","prop_under","prop_over"
"1","S1","Fear",37,"male","white","college_bachDegree","christianity_protestant","IT support","yes","3","USA","yes_only","republican","yes","no","agree_strong","agree_strong","agree_moderate","agree_strong","NA",1,"toby_chimp","fetus","much more left",11431,-2,9.34408424202578,0,1,0,0.0128205128205128
"2","S1","Fear",37,"male","white","college_bachDegree","christianity_protestant","IT support","yes","3","USA","yes_only","republican","yes","no","agree_strong","agree_strong","agree_moderate","agree_strong","NA",2,"samantha_hill_girl","you","both equally",7812,0,8.96341629199657,0,0,0,0.0128205128205128
"3","S1","Fear",37,"male","white","college_bachDegree","christianity_protestant","IT support","yes","3","USA","yes_only","republican","yes","no","agree_strong","agree_strong","agree_moderate","agree_strong","NA",3,"todd_billingsley_man","delores_gleitman_deceased","much more left",3462,-2,8.14960173573616,0,0,0,0.0128205128205128
"4","S1","Fear",37,"male","white","college_bachDegree","christianity_protestant","IT support","yes","3","USA","yes_only","republican","yes","no","agree_strong","agree_strong","agree_moderate","agree_strong","NA",4,"toby_chimp","gerald_schiff_pvs","much more left",3910,-2,8.27129265297941,0,0,0,0.0128205128205128
"5","S1","Fear",37,"male","white","college_bachDegree","christianity_protestant","IT support","yes","3","USA","yes_only","republican","yes","no","agree_strong","agree_strong","agree_moderate","agree_strong","NA",5,"kismet_robot","toby_chimp","much more right",3598,2,8.18813341451048,0,0,0,0.0128205128205128
"6","S1","Fear",37,"male","white","college_bachDegree","christianity_protestant","IT support","yes","3","USA","yes_only","republican","yes","no","agree_strong","agree_strong","agree_moderate","agree_strong","NA",6,"green_frog","samantha_hill_girl","much more right",2838,2,7.95085485771999,0,0,0,0.0128205128205128
"7","S1","Fear",37,"male","white","college_bachDegree","christianity_protestant","IT support","yes","3","USA","yes_only","republican","yes","no","agree_strong","agree_strong","agree_moderate","agree_strong","NA",7,"you","delores_gleitman_deceased","much more left",1862,-2,7.52940645783701,0,0,0,0.0128205128205128
"8","S1","Fear",37,"male","white","college_bachDegree","christianity_protestant","IT support","yes","3","USA","yes_only","republican","yes","no","agree_strong","agree_strong","agree_moderate","agree_strong","NA",8,"fetus","gerald_schiff_pvs","slightly more right",5046,1,8.526351129201,0,0,0,0.0128205128205128
"9","S1","Fear",37,"male","white","college_bachDegree","christianity_protestant","IT support","yes","3","USA","yes_only","republican","yes","no","agree_strong","agree_strong","agree_moderate","agree_strong","NA",9,"kismet_robot","fetus","slightly more right",2799,1,7.93701748951545,0,0,0,0.0128205128205128
"10","S1","Fear",37,"male","white","college_bachDegree","christianity_protestant","IT support","yes","3","USA","yes_only","republican","yes","no","agree_strong","agree_strong","agree_moderate","agree_strong","NA",10,"todd_billingsley_man","nicholas_gannon_baby","much more left",3175,-2,8.06306291132679,0,0,0,0.0128205128205128
"11","S1","Fear",37,"male","white","college_bachDegree","christianity_protestant","IT support","yes","3","USA","yes_only","republican","yes","no","agree_strong","agree_strong","agree_moderate","agree_strong","NA",11,"delores_gleitman_deceased","god","much more right",3389,2,8.12829017160705,0,0,0,0.0128205128205128
"12","S1","Fear",37,"male","white","college_bachDegree","christianity_protestant","IT support","yes","3","USA","yes_only","republican","yes","no","agree_strong","agree_strong","agree_moderate","agree_strong","NA",12,"fetus","delores_gleitman_deceased","much more left",4004,-2,8.29504914043511,0,0,0,0.0128205128205128
"13","S1","Fear",37,"male","white","college_bachDegree","christianity_protestant","IT support","yes","3","USA","yes_only","republican","yes","no","agree_strong","agree_strong","agree_moderate","agree_strong","NA",13,"kismet_robot","todd_billingsley_man","much more right",2374,2,7.77233157516961,0,0,0,0.0128205128205128
"14","S1","Fear",37,"male","white","college_bachDegree","christianity_protestant","IT support","yes","3","USA","yes_only","republican","yes","no","agree_strong","agree_strong","agree_moderate","agree_strong","NA",14,"charlie_dog","toby_chimp","both equally",7143,0,8.87388813515497,0,0,0,0.0128205128205128
"15","S1","Fear",37,"male","white","college_bachDegree","christianity_protestant","IT support","yes","3","USA","yes_only","republican","yes","no","agree_strong","agree_strong","agree_moderate","agree_strong","NA",15,"kismet_robot","samantha_hill_girl","much more right",2105,2,7.65207074611648,0,0,0,0.0128205128205128
"16","S1","Fear",37,"male","white","college_bachDegree","christianity_protestant","IT support","yes","3","USA","yes_only","republican","yes","no","agree_strong","agree_strong","agree_moderate","agree_strong","NA",16,"fetus","todd_billingsley_man","much more right",1715,2,7.44716835960004,0,0,0,0.0128205128205128
"17","S1","Fear",37,"male","white","college_bachDegree","christianity_protestant","IT support","yes","3","USA","yes_only","republican","yes","no","agree_strong","agree_strong","agree_moderate","agree_strong","NA",17,"delores_gleitman_deceased","sharon_harvey_woman","much more right",2047,2,7.62413058566129,0,0,0,0.0128205128205128
"18","S1","Fear",37,"male","white","college_bachDegree","christianity_protestant","IT support","yes","3","USA","yes_only","republican","yes","no","agree_strong","agree_strong","agree_moderate","agree_strong","NA",18,"samantha_hill_girl","nicholas_gannon_baby","much more left",3310,-2,8.10470346837111,0,0,0,0.0128205128205128
"19","S1","Fear",37,"male","white","college_bachDegree","christianity_protestant","IT support","yes","3","USA","yes_only","republican","yes","no","agree_strong","agree_strong","agree_moderate","agree_strong","NA",19,"nicholas_gannon_baby","green_frog","much more left",1278,-2,7.15305163493748,0,0,0,0.0128205128205128
"20","S1","Fear",37,"male","white","college_bachDegree","christianity_protestant","IT support","yes","3","USA","yes_only","republican","yes","no","agree_strong","agree_strong","agree_moderate","agree_strong","NA",20,"fetus","nicholas_gannon_baby","much more right",1879,2,7.53849499941346,0,0,0,0.0128205128205128
"21","S1","Fear",37,"male","white","college_bachDegree","christianity_protestant","IT support","yes","3","USA","yes_only","republican","yes","no","agree_strong","agree_strong","agree_moderate","agree_strong","NA",21,"green_frog","kismet_robot","slightly more left",3328,-1,8.1101268019411,0,0,0,0.0128205128205128
"22","S1","Fear",37,"male","white","college_bachDegree","christianity_protestant","IT support","yes","3","USA","yes_only","republican","yes","no","agree_strong","agree_strong","agree_moderate","agree_strong","NA",22,"green_frog","fetus","slightly more left",3182,-1,8.06526520889773,0,0,0,0.0128205128205128
"23","S1","Fear",37,"male","white","college_bachDegree","christianity_protestant","IT support","yes","3","USA","yes_only","republican","yes","no","agree_strong","agree_strong","agree_moderate","agree_strong","NA",23,"charlie_dog","kismet_robot","much more left",2174,-2,7.68432406768116,0,0,0,0.0128205128205128
"24","S1","Fear",37,"male","white","college_bachDegree","christianity_protestant","IT support","yes","3","USA","yes_only","republican","yes","no","agree_strong","agree_strong","agree_moderate","agree_strong","NA",24,"gerald_schiff_pvs","you","much more right",1709,2,7.44366368311559,0,0,0,0.0128205128205128
"25","S1","Fear",37,"male","white","college_bachDegree","christianity_protestant","IT support","yes","3","USA","yes_only","republican","yes","no","agree_strong","agree_strong","agree_moderate","agree_strong","NA",25,"gerald_schiff_pvs","nicholas_gannon_baby","much more right",1686,2,7.4301141385618,0,0,0,0.0128205128205128
"26","S1","Fear",37,"male","white","college_bachDegree","christianity_protestant","IT support","yes","3","USA","yes_only","republican","yes","no","agree_strong","agree_strong","agree_moderate","agree_strong","NA",26,"charlie_dog","delores_gleitman_deceased","much more left",1541,-2,7.34018683532012,0,0,0,0.0128205128205128
"27","S1","Fear",37,"male","white","college_bachDegree","christianity_protestant","IT support","yes","3","USA","yes_only","republican","yes","no","agree_strong","agree_strong","agree_moderate","agree_strong","NA",27,"delores_gleitman_deceased","green_frog","much more right",1734,2,7.45818615734049,0,0,0,0.0128205128205128
"28","S1","Fear",37,"male","white","college_bachDegree","christianity_protestant","IT support","yes","3","USA","yes_only","republican","yes","no","agree_strong","agree_strong","agree_moderate","agree_strong","NA",28,"charlie_dog","you","much more right",2237,2,7.71289096149013,0,0,0,0.0128205128205128
"29","S1","Fear",37,"male","white","college_bachDegree","christianity_protestant","IT support","yes","3","USA","yes_only","republican","yes","no","agree_strong","agree_strong","agree_moderate","agree_strong","NA",29,"you","todd_billingsley_man","both equally",2367,0,7.76937860951398,0,0,0,0.0128205128205128
"30","S1","Fear",37,"male","white","college_bachDegree","christianity_protestant","IT support","yes","3","USA","yes_only","republican","yes","no","agree_strong","agree_strong","agree_moderate","agree_strong","NA",30,"sharon_harvey_woman","nicholas_gannon_baby","slightly more left",1998,-1,7.5999019592085,0,0,0,0.0128205128205128
"31","S1","Fear",37,"male","white","college_bachDegree","christianity_protestant","IT support","yes","3","USA","yes_only","republican","yes","no","agree_strong","agree_strong","agree_moderate","agree_strong","NA",31,"nicholas_gannon_baby","toby_chimp","slightly more left",1693,-1,7.43425738213314,0,0,0,0.0128205128205128
"32","S1","Fear",37,"male","white","college_bachDegree","christianity_protestant","IT support","yes","3","USA","yes_only","republican","yes","no","agree_strong","agree_strong","agree_moderate","agree_strong","NA",32,"toby_chimp","sharon_harvey_woman","much more right",2326,2,7.75190533307861,0,0,0,0.0128205128205128
"33","S1","Fear",37,"male","white","college_bachDegree","christianity_protestant","IT support","yes","3","USA","yes_only","republican","yes","no","agree_strong","agree_strong","agree_moderate","agree_strong","NA",33,"sharon_harvey_woman","green_frog","much more left",2006,-2,7.60389796852188,0,0,0,0.0128205128205128
"34","S1","Fear",37,"male","white","college_bachDegree","christianity_protestant","IT support","yes","3","USA","yes_only","republican","yes","no","agree_strong","agree_strong","agree_moderate","agree_strong","NA",34,"green_frog","charlie_dog","slightly more right",3069,1,8.02910705461974,0,0,0,0.0128205128205128
"35","S1","Fear",37,"male","white","college_bachDegree","christianity_protestant","IT support","yes","3","USA","yes_only","republican","yes","no","agree_strong","agree_strong","agree_moderate","agree_strong","NA",35,"samantha_hill_girl","fetus","much more left",2326,-2,7.75190533307861,0,0,0,0.0128205128205128
"36","S1","Fear",37,"male","white","college_bachDegree","christianity_protestant","IT support","yes","3","USA","yes_only","republican","yes","no","agree_strong","agree_strong","agree_moderate","agree_strong","NA",36,"toby_chimp","god","much more right",9030,2,9.10830764641103,0,0,0,0.0128205128205128
"37","S1","Fear",37,"male","white","college_bachDegree","christianity_protestant","IT support","yes","3","USA","yes_only","republican","yes","no","agree_strong","agree_strong","agree_moderate","agree_strong","NA",37,"sharon_harvey_woman","gerald_schiff_pvs","much more left",1677,-2,7.42476176182321,0,0,0,0.0128205128205128
"38","S1","Fear",37,"male","white","college_bachDegree","christianity_protestant","IT support","yes","3","USA","yes_only","republican","yes","no","agree_strong","agree_strong","agree_moderate","agree_strong","NA",38,"delores_gleitman_deceased","kismet_robot","much more right",2662,2,7.88683299895506,0,0,0,0.0128205128205128
"39","S1","Fear",37,"male","white","college_bachDegree","christianity_protestant","IT support","yes","3","USA","yes_only","republican","yes","no","agree_strong","agree_strong","agree_moderate","agree_strong","NA",39,"green_frog","todd_billingsley_man","much more right",2286,2,7.73455884435476,0,0,0,0.0128205128205128
"40","S1","Fear",37,"male","white","college_bachDegree","christianity_protestant","IT support","yes","3","USA","yes_only","republican","yes","no","agree_strong","agree_strong","agree_moderate","agree_strong","NA",40,"gerald_schiff_pvs","charlie_dog","slightly more left",2110,-1,7.65444322647011,0,0,0,0.0128205128205128
"41","S1","Fear",37,"male","white","college_bachDegree","christianity_protestant","IT support","yes","3","USA","yes_only","republican","yes","no","agree_strong","agree_strong","agree_moderate","agree_strong","NA",41,"toby_chimp","delores_gleitman_deceased","much more left",1895,-2,7.54697411751653,0,0,0,0.0128205128205128
"42","S1","Fear",37,"male","white","college_bachDegree","christianity_protestant","IT support","yes","3","USA","yes_only","republican","yes","no","agree_strong","agree_strong","agree_moderate","agree_strong","NA",42,"kismet_robot","nicholas_gannon_baby","much more right",2263,2,7.72444664563354,0,0,0,0.0128205128205128
"43","S1","Fear",37,"male","white","college_bachDegree","christianity_protestant","IT support","yes","3","USA","yes_only","republican","yes","no","agree_strong","agree_strong","agree_moderate","agree_strong","NA",43,"sharon_harvey_woman","you","both equally",1575,0,7.36201055125973,0,0,0,0.0128205128205128
"44","S1","Fear",37,"male","white","college_bachDegree","christianity_protestant","IT support","yes","3","USA","yes_only","republican","yes","no","agree_strong","agree_strong","agree_moderate","agree_strong","NA",44,"god","gerald_schiff_pvs","much more left",4278,-2,8.36124088964235,0,0,0,0.0128205128205128
"45","S1","Fear",37,"male","white","college_bachDegree","christianity_protestant","IT support","yes","3","USA","yes_only","republican","yes","no","agree_strong","agree_strong","agree_moderate","agree_strong","NA",45,"god","sharon_harvey_woman","much more left",1542,-2,7.34083555412327,0,0,0,0.0128205128205128
"46","S1","Fear",37,"male","white","college_bachDegree","christianity_protestant","IT support","yes","3","USA","yes_only","republican","yes","no","agree_strong","agree_strong","agree_moderate","agree_strong","NA",46,"toby_chimp","todd_billingsley_man","much more right",1743,2,7.46336304552002,0,0,0,0.0128205128205128
"47","S1","Fear",37,"male","white","college_bachDegree","christianity_protestant","IT support","yes","3","USA","yes_only","republican","yes","no","agree_strong","agree_strong","agree_moderate","agree_strong","NA",47,"god","kismet_robot","much more left",1494,-2,7.30921236569276,0,0,0,0.0128205128205128
"48","S1","Fear",37,"male","white","college_bachDegree","christianity_protestant","IT support","yes","3","USA","yes_only","republican","yes","no","agree_strong","agree_strong","agree_moderate","agree_strong","NA",48,"delores_gleitman_deceased","gerald_schiff_pvs","much more right",2190,2,7.69165682281055,0,0,0,0.0128205128205128
"49","S1","Fear",37,"male","white","college_bachDegree","christianity_protestant","IT support","yes","3","USA","yes_only","republican","yes","no","agree_strong","agree_strong","agree_moderate","agree_strong","NA",49,"gerald_schiff_pvs","kismet_robot","much more left",1807,-2,7.49942329059223,0,0,0,0.0128205128205128
"50","S1","Fear",37,"male","white","college_bachDegree","christianity_protestant","IT support","yes","3","USA","yes_only","republican","yes","no","agree_strong","agree_strong","agree_moderate","agree_strong","NA",50,"nicholas_gannon_baby","delores_gleitman_deceased","much more left",1703,-2,7.44014668066269,0,0,0,0.0128205128205128
"51","S1","Fear",37,"male","white","college_bachDegree","christianity_protestant","IT support","yes","3","USA","yes_only","republican","yes","no","agree_strong","agree_strong","agree_moderate","agree_strong","NA",51,"samantha_hill_girl","delores_gleitman_deceased","much more left",1006,-2,6.91373735065968,0,0,0,0.0128205128205128
"52","S1","Fear",37,"male","white","college_bachDegree","christianity_protestant","IT support","yes","3","USA","yes_only","republican","yes","no","agree_strong","agree_strong","agree_moderate","agree_strong","NA",52,"todd_billingsley_man","sharon_harvey_woman","both equally",1502,0,7.31455283232408,0,0,0,0.0128205128205128
"53","S1","Fear",37,"male","white","college_bachDegree","christianity_protestant","IT support","yes","3","USA","yes_only","republican","yes","no","agree_strong","agree_strong","agree_moderate","agree_strong","NA",53,"nicholas_gannon_baby","you","slightly more right",3407,1,8.13358741766097,0,0,0,0.0128205128205128
"54","S1","Fear",37,"male","white","college_bachDegree","christianity_protestant","IT support","yes","3","USA","yes_only","republican","yes","no","agree_strong","agree_strong","agree_moderate","agree_strong","NA",54,"you","kismet_robot","much more left",7807,-2,8.96277604612029,0,0,0,0.0128205128205128
"55","S1","Fear",37,"male","white","college_bachDegree","christianity_protestant","IT support","yes","3","USA","yes_only","republican","yes","no","agree_strong","agree_strong","agree_moderate","agree_strong","NA",55,"charlie_dog","god","much more right",1705,2,7.44132038971762,0,0,0,0.0128205128205128
"56","S1","Fear",37,"male","white","college_bachDegree","christianity_protestant","IT support","yes","3","USA","yes_only","republican","yes","no","agree_strong","agree_strong","agree_moderate","agree_strong","NA",56,"green_frog","god","much more right",1510,2,7.31986492980897,0,0,0,0.0128205128205128
"57","S1","Fear",37,"male","white","college_bachDegree","christianity_protestant","IT support","yes","3","USA","yes_only","republican","yes","no","agree_strong","agree_strong","agree_moderate","agree_strong","NA",57,"gerald_schiff_pvs","green_frog","slightly more right",5047,1,8.52654928634026,0,0,0,0.0128205128205128
"58","S1","Fear",37,"male","white","college_bachDegree","christianity_protestant","IT support","yes","3","USA","yes_only","republican","yes","no","agree_strong","agree_strong","agree_moderate","agree_strong","NA",58,"samantha_hill_girl","god","much more right",1926,2,7.56320059235807,0,0,0,0.0128205128205128
"59","S1","Fear",37,"male","white","college_bachDegree","christianity_protestant","IT support","yes","3","USA","yes_only","republican","yes","no","agree_strong","agree_strong","agree_moderate","agree_strong","NA",59,"god","todd_billingsley_man","much more left",4427,-2,8.39547743273214,0,0,0,0.0128205128205128
"60","S1","Fear",37,"male","white","college_bachDegree","christianity_protestant","IT support","yes","3","USA","yes_only","republican","yes","no","agree_strong","agree_strong","agree_moderate","agree_strong","NA",60,"samantha_hill_girl","toby_chimp","much more left",2886,-2,7.96762673933382,0,0,0,0.0128205128205128
"61","S1","Fear",37,"male","white","college_bachDegree","christianity_protestant","IT support","yes","3","USA","yes_only","republican","yes","no","agree_strong","agree_strong","agree_moderate","agree_strong","NA",61,"todd_billingsley_man","gerald_schiff_pvs","much more left",6703,-2,8.81031046635796,0,0,0,0.0128205128205128
"62","S1","Fear",37,"male","white","college_bachDegree","christianity_protestant","IT support","yes","3","USA","yes_only","republican","yes","no","agree_strong","agree_strong","agree_moderate","agree_strong","NA",62,"samantha_hill_girl","sharon_harvey_woman","slightly more right",2206,1,7.69893619981345,0,0,0,0.0128205128205128
"63","S1","Fear",37,"male","white","college_bachDegree","christianity_protestant","IT support","yes","3","USA","yes_only","republican","yes","no","agree_strong","agree_strong","agree_moderate","agree_strong","NA",63,"toby_chimp","green_frog","slightly more left",1726,-1,7.45356187164337,0,0,0,0.0128205128205128
"64","S1","Fear",37,"male","white","college_bachDegree","christianity_protestant","IT support","yes","3","USA","yes_only","republican","yes","no","agree_strong","agree_strong","agree_moderate","agree_strong","NA",64,"you","green_frog","much more left",2062,-2,7.63143166457691,0,0,0,0.0128205128205128
"65","S1","Fear",37,"male","white","college_bachDegree","christianity_protestant","IT support","yes","3","USA","yes_only","republican","yes","no","agree_strong","agree_strong","agree_moderate","agree_strong","NA",65,"toby_chimp","you","much more right",1782,2,7.48549160803075,0,0,0,0.0128205128205128
"66","S1","Fear",37,"male","white","college_bachDegree","christianity_protestant","IT support","yes","3","USA","yes_only","republican","yes","no","agree_strong","agree_strong","agree_moderate","agree_strong","NA",66,"todd_billingsley_man","samantha_hill_girl","slightly more left",2046,-1,7.62364194651157,0,0,0,0.0128205128205128
"67","S1","Fear",37,"male","white","college_bachDegree","christianity_protestant","IT support","yes","3","USA","yes_only","republican","yes","no","agree_strong","agree_strong","agree_moderate","agree_strong","NA",67,"nicholas_gannon_baby","charlie_dog","slightly more left",3710,-1,8.21878715560148,0,0,0,0.0128205128205128
"68","S1","Fear",37,"male","white","college_bachDegree","christianity_protestant","IT support","yes","3","USA","yes_only","republican","yes","no","agree_strong","agree_strong","agree_moderate","agree_strong","NA",68,"you","fetus","much more left",1333,-2,7.19518732017871,0,0,0,0.0128205128205128
"69","S1","Fear",37,"male","white","college_bachDegree","christianity_protestant","IT support","yes","3","USA","yes_only","republican","yes","no","agree_strong","agree_strong","agree_moderate","agree_strong","NA",69,"fetus","sharon_harvey_woman","much more right",1710,2,7.44424864949671,0,0,0,0.0128205128205128
"70","S1","Fear",37,"male","white","college_bachDegree","christianity_protestant","IT support","yes","3","USA","yes_only","republican","yes","no","agree_strong","agree_strong","agree_moderate","agree_strong","NA",70,"charlie_dog","samantha_hill_girl","much more right",2910,2,7.97590836016554,0,0,0,0.0128205128205128
"71","S1","Fear",37,"male","white","college_bachDegree","christianity_protestant","IT support","yes","3","USA","yes_only","republican","yes","no","agree_strong","agree_strong","agree_moderate","agree_strong","NA",71,"fetus","charlie_dog","slightly more left",6290,-1,8.74671634969449,0,0,0,0.0128205128205128
"72","S1","Fear",37,"male","white","college_bachDegree","christianity_protestant","IT support","yes","3","USA","yes_only","republican","yes","no","agree_strong","agree_strong","agree_moderate","agree_strong","NA",72,"god","fetus","much more left",1384,-2,7.23273313617761,0,0,0,0.0128205128205128
"73","S1","Fear",37,"male","white","college_bachDegree","christianity_protestant","IT support","yes","3","USA","yes_only","republican","yes","no","agree_strong","agree_strong","agree_moderate","agree_strong","NA",73,"charlie_dog","sharon_harvey_woman","much more right",2414,2,7.78904040165748,0,0,0,0.0128205128205128
"74","S1","Fear",37,"male","white","college_bachDegree","christianity_protestant","IT support","yes","3","USA","yes_only","republican","yes","no","agree_strong","agree_strong","agree_moderate","agree_strong","NA",74,"god","nicholas_gannon_baby","much more left",1864,-2,7.53047999524554,0,0,0,0.0128205128205128
"75","S1","Fear",37,"male","white","college_bachDegree","christianity_protestant","IT support","yes","3","USA","yes_only","republican","yes","no","agree_strong","agree_strong","agree_moderate","agree_strong","NA",75,"samantha_hill_girl","gerald_schiff_pvs","much more left",2391,-2,7.77946696745832,0,0,0,0.0128205128205128
"76","S1","Fear",37,"male","white","college_bachDegree","christianity_protestant","IT support","yes","3","USA","yes_only","republican","yes","no","agree_strong","agree_strong","agree_moderate","agree_strong","NA",76,"god","you","much more left",1573,-2,7.36073990305828,0,0,0,0.0128205128205128
"77","S1","Fear",37,"male","white","college_bachDegree","christianity_protestant","IT support","yes","3","USA","yes_only","republican","yes","no","agree_strong","agree_strong","agree_moderate","agree_strong","NA",77,"todd_billingsley_man","charlie_dog","much more left",1575,-2,7.36201055125973,0,0,0,0.0128205128205128
"78","S1","Fear",37,"male","white","college_bachDegree","christianity_protestant","IT support","yes","3","USA","yes_only","republican","yes","no","agree_strong","agree_strong","agree_moderate","agree_strong","NA",78,"sharon_harvey_woman","kismet_robot","much more left",1511,-2,7.32052696227274,0,0,0,0.0128205128205128
"79","S2","Hunger",55,"male","white","college_some","none","store owner","no_commited","0","USA","yes_only","republican","no","no_limitedMeat","disagree_moderate","disagree_moderate","agree_moderate","agree_strong","n/a",1,"green_frog","delores_gleitman_deceased","much more left",5610,-2,8.63230599851674,0,0,0.0256410256410256,0
"80","S2","Hunger",55,"male","white","college_some","none","store owner","no_commited","0","USA","yes_only","republican","no","no_limitedMeat","disagree_moderate","disagree_moderate","agree_moderate","agree_strong","n/a",2,"gerald_schiff_pvs","fetus","both equally",6910,0,8.84072491676172,0,0,0.0256410256410256,0
"81","S2","Hunger",55,"male","white","college_some","none","store owner","no_commited","0","USA","yes_only","republican","no","no_limitedMeat","disagree_moderate","disagree_moderate","agree_moderate","agree_strong","n/a",3,"green_frog","god","much more left",5011,-2,8.51939077495972,0,0,0.0256410256410256,0
"82","S2","Hunger",55,"male","white","college_some","none","store owner","no_commited","0","USA","yes_only","republican","no","no_limitedMeat","disagree_moderate","disagree_moderate","agree_moderate","agree_strong","n/a",4,"god","sharon_harvey_woman","much more right",1983,2,7.5923661285198,0,0,0.0256410256410256,0
"83","S2","Hunger",55,"male","white","college_some","none","store owner","no_commited","0","USA","yes_only","republican","no","no_limitedMeat","disagree_moderate","disagree_moderate","agree_moderate","agree_strong","n/a",5,"samantha_hill_girl","kismet_robot","much more right",98,2,4.58496747867057,1,0,0.0256410256410256,0
"84","S2","Hunger",55,"male","white","college_some","none","store owner","no_commited","0","USA","yes_only","republican","no","no_limitedMeat","disagree_moderate","disagree_moderate","agree_moderate","agree_strong","n/a",6,"samantha_hill_girl","fetus","much more left",3995,-2,8.29279885820037,0,0,0.0256410256410256,0
"85","S2","Hunger",55,"male","white","college_some","none","store owner","no_commited","0","USA","yes_only","republican","no","no_limitedMeat","disagree_moderate","disagree_moderate","agree_moderate","agree_strong","n/a",7,"fetus","toby_chimp","much more right",9229,2,9.13010597926558,0,0,0.0256410256410256,0
"86","S2","Hunger",55,"male","white","college_some","none","store owner","no_commited","0","USA","yes_only","republican","no","no_limitedMeat","disagree_moderate","disagree_moderate","agree_moderate","agree_strong","n/a",8,"delores_gleitman_deceased","charlie_dog","much more right",5141,2,8.54500289205551,0,0,0.0256410256410256,0
"87","S2","Hunger",55,"male","white","college_some","none","store owner","no_commited","0","USA","yes_only","republican","no","no_limitedMeat","disagree_moderate","disagree_moderate","agree_moderate","agree_strong","n/a",9,"god","fetus","much more right",2404,2,7.7848892956551,0,0,0.0256410256410256,0
"88","S2","Hunger",55,"male","white","college_some","none","store owner","no_commited","0","USA","yes_only","republican","no","no_limitedMeat","disagree_moderate","disagree_moderate","agree_moderate","agree_strong","n/a",10,"you","green_frog","much more left",3245,-2,8.08487062913819,0,0,0.0256410256410256,0
"89","S2","Hunger",55,"male","white","college_some","none","store owner","no_commited","0","USA","yes_only","republican","no","no_limitedMeat","disagree_moderate","disagree_moderate","agree_moderate","agree_strong","n/a",11,"sharon_harvey_woman","nicholas_gannon_baby","both equally",4997,0,8.51659301134421,0,0,0.0256410256410256,0
"90","S2","Hunger",55,"male","white","college_some","none","store owner","no_commited","0","USA","yes_only","republican","no","no_limitedMeat","disagree_moderate","disagree_moderate","agree_moderate","agree_strong","n/a",12,"nicholas_gannon_baby","samantha_hill_girl","both equally",9332,0,9.14120463314132,0,0,0.0256410256410256,0
"91","S2","Hunger",55,"male","white","college_some","none","store owner","no_commited","0","USA","yes_only","republican","no","no_limitedMeat","disagree_moderate","disagree_moderate","agree_moderate","agree_strong","n/a",13,"god","todd_billingsley_man","much more right",2870,2,7.96206730875367,0,0,0.0256410256410256,0
"92","S2","Hunger",55,"male","white","college_some","none","store owner","no_commited","0","USA","yes_only","republican","no","no_limitedMeat","disagree_moderate","disagree_moderate","agree_moderate","agree_strong","n/a",14,"todd_billingsley_man","toby_chimp","both equally",2937,0,7.98514393119862,0,0,0.0256410256410256,0
"93","S2","Hunger",55,"male","white","college_some","none","store owner","no_commited","0","USA","yes_only","republican","no","no_limitedMeat","disagree_moderate","disagree_moderate","agree_moderate","agree_strong","n/a",15,"gerald_schiff_pvs","green_frog","much more right",2486,2,7.81843027207066,0,0,0.0256410256410256,0
"94","S2","Hunger",55,"male","white","college_some","none","store owner","no_commited","0","USA","yes_only","republican","no","no_limitedMeat","disagree_moderate","disagree_moderate","agree_moderate","agree_strong","n/a",16,"todd_billingsley_man","delores_gleitman_deceased","much more left",1608,-2,7.38274644973891,0,0,0.0256410256410256,0
"95","S2","Hunger",55,"male","white","college_some","none","store owner","no_commited","0","USA","yes_only","republican","no","no_limitedMeat","disagree_moderate","disagree_moderate","agree_moderate","agree_strong","n/a",17,"charlie_dog","sharon_harvey_woman","much more left",50,-2,3.91202300542815,1,0,0.0256410256410256,0
"96","S2","Hunger",55,"male","white","college_some","none","store owner","no_commited","0","USA","yes_only","republican","no","no_limitedMeat","disagree_moderate","disagree_moderate","agree_moderate","agree_strong","n/a",18,"charlie_dog","todd_billingsley_man","both equally",2246,0,7.71690613529839,0,0,0.0256410256410256,0
"97","S2","Hunger",55,"male","white","college_some","none","store owner","no_commited","0","USA","yes_only","republican","no","no_limitedMeat","disagree_moderate","disagree_moderate","agree_moderate","agree_strong","n/a",19,"kismet_robot","gerald_schiff_pvs","slightly more right",5393,1,8.59285709533723,0,0,0.0256410256410256,0
"98","S2","Hunger",55,"male","white","college_some","none","store owner","no_commited","0","USA","yes_only","republican","no","no_limitedMeat","disagree_moderate","disagree_moderate","agree_moderate","agree_strong","n/a",20,"green_frog","todd_billingsley_man","much more right",2674,2,7.89133075766189,0,0,0.0256410256410256,0
"99","S2","Hunger",55,"male","white","college_some","none","store owner","no_commited","0","USA","yes_only","republican","no","no_limitedMeat","disagree_moderate","disagree_moderate","agree_moderate","agree_strong","n/a",21,"charlie_dog","kismet_robot","much more left",1533,-2,7.33498187887181,0,0,0.0256410256410256,0
"100","S2","Hunger",55,"male","white","college_some","none","store owner","no_commited","0","USA","yes_only","republican","no","no_limitedMeat","disagree_moderate","disagree_moderate","agree_moderate","agree_strong","n/a",22,"nicholas_gannon_baby","green_frog","much more left",3625,-2,8.19560956728878,0,0,0.0256410256410256,0
"101","S2","Hunger",55,"male","white","college_some","none","store owner","no_commited","0","USA","yes_only","republican","no","no_limitedMeat","disagree_moderate","disagree_moderate","agree_moderate","agree_strong","n/a",23,"toby_chimp","samantha_hill_girl","both equally",1528,0,7.33171496972647,0,0,0.0256410256410256,0
"102","S2","Hunger",55,"male","white","college_some","none","store owner","no_commited","0","USA","yes_only","republican","no","no_limitedMeat","disagree_moderate","disagree_moderate","agree_moderate","agree_strong","n/a",24,"charlie_dog","green_frog","much more left",1986,-2,7.59387784460512,0,0,0.0256410256410256,0
"103","S2","Hunger",55,"male","white","college_some","none","store owner","no_commited","0","USA","yes_only","republican","no","no_limitedMeat","disagree_moderate","disagree_moderate","agree_moderate","agree_strong","n/a",25,"fetus","kismet_robot","slightly more left",4061,-1,8.3091845276863,0,0,0.0256410256410256,0
"104","S2","Hunger",55,"male","white","college_some","none","store owner","no_commited","0","USA","yes_only","republican","no","no_limitedMeat","disagree_moderate","disagree_moderate","agree_moderate","agree_strong","n/a",26,"toby_chimp","god","much more left",1961,-2,7.58120982619635,0,0,0.0256410256410256,0
"105","S2","Hunger",55,"male","white","college_some","none","store owner","no_commited","0","USA","yes_only","republican","no","no_limitedMeat","disagree_moderate","disagree_moderate","agree_moderate","agree_strong","n/a",27,"charlie_dog","god","much more left",5072,-2,8.53149049611706,0,0,0.0256410256410256,0
"106","S2","Hunger",55,"male","white","college_some","none","store owner","no_commited","0","USA","yes_only","republican","no","no_limitedMeat","disagree_moderate","disagree_moderate","agree_moderate","agree_strong","n/a",28,"fetus","todd_billingsley_man","much more right",1608,2,7.38274644973891,0,0,0.0256410256410256,0
"107","S2","Hunger",55,"male","white","college_some","none","store owner","no_commited","0","USA","yes_only","republican","no","no_limitedMeat","disagree_moderate","disagree_moderate","agree_moderate","agree_strong","n/a",29,"sharon_harvey_woman","kismet_robot","much more left",1530,-2,7.33302301438648,0,0,0.0256410256410256,0
"108","S2","Hunger",55,"male","white","college_some","none","store owner","no_commited","0","USA","yes_only","republican","no","no_limitedMeat","disagree_moderate","disagree_moderate","agree_moderate","agree_strong","n/a",30,"gerald_schiff_pvs","delores_gleitman_deceased","slightly more left",4271,-1,8.35960327084147,0,0,0.0256410256410256,0
"109","S2","Hunger",55,"male","white","college_some","none","store owner","no_commited","0","USA","yes_only","republican","no","no_limitedMeat","disagree_moderate","disagree_moderate","agree_moderate","agree_strong","n/a",31,"sharon_harvey_woman","gerald_schiff_pvs","much more left",2270,-2,7.72753511047545,0,0,0.0256410256410256,0
"110","S2","Hunger",55,"male","white","college_some","none","store owner","no_commited","0","USA","yes_only","republican","no","no_limitedMeat","disagree_moderate","disagree_moderate","agree_moderate","agree_strong","n/a",32,"nicholas_gannon_baby","fetus","much more left",1637,-2,7.40062057737113,0,0,0.0256410256410256,0
"111","S2","Hunger",55,"male","white","college_some","none","store owner","no_commited","0","USA","yes_only","republican","no","no_limitedMeat","disagree_moderate","disagree_moderate","agree_moderate","agree_strong","n/a",33,"gerald_schiff_pvs","you","much more right",2070,2,7.63530388625941,0,0,0.0256410256410256,0
"112","S2","Hunger",55,"male","white","college_some","none","store owner","no_commited","0","USA","yes_only","republican","no","no_limitedMeat","disagree_moderate","disagree_moderate","agree_moderate","agree_strong","n/a",34,"god","gerald_schiff_pvs","much more right",3867,2,8.2602342916073,0,0,0.0256410256410256,0
"113","S2","Hunger",55,"male","white","college_some","none","store owner","no_commited","0","USA","yes_only","republican","no","no_limitedMeat","disagree_moderate","disagree_moderate","agree_moderate","agree_strong","n/a",35,"todd_billingsley_man","you","both equally",3155,0,8.05674377497531,0,0,0.0256410256410256,0
"114","S2","Hunger",55,"male","white","college_some","none","store owner","no_commited","0","USA","yes_only","republican","no","no_limitedMeat","disagree_moderate","disagree_moderate","agree_moderate","agree_strong","n/a",36,"delores_gleitman_deceased","nicholas_gannon_baby","much more right",4701,2,8.45553053102413,0,0,0.0256410256410256,0
"115","S2","Hunger",55,"male","white","college_some","none","store owner","no_commited","0","USA","yes_only","republican","no","no_limitedMeat","disagree_moderate","disagree_moderate","agree_moderate","agree_strong","n/a",37,"fetus","you","much more right",2314,2,7.74673290775362,0,0,0.0256410256410256,0
"116","S2","Hunger",55,"male","white","college_some","none","store owner","no_commited","0","USA","yes_only","republican","no","no_limitedMeat","disagree_moderate","disagree_moderate","agree_moderate","agree_strong","n/a",38,"you","delores_gleitman_deceased","much more left",2063,-2,7.63191651307125,0,0,0.0256410256410256,0
"117","S2","Hunger",55,"male","white","college_some","none","store owner","no_commited","0","USA","yes_only","republican","no","no_limitedMeat","disagree_moderate","disagree_moderate","agree_moderate","agree_strong","n/a",39,"gerald_schiff_pvs","nicholas_gannon_baby","much more right",1984,2,7.59287028784482,0,0,0.0256410256410256,0
"118","S2","Hunger",55,"male","white","college_some","none","store owner","no_commited","0","USA","yes_only","republican","no","no_limitedMeat","disagree_moderate","disagree_moderate","agree_moderate","agree_strong","n/a",40,"god","kismet_robot","both equally",2228,0,7.70885960104718,0,0,0.0256410256410256,0
"119","S2","Hunger",55,"male","white","college_some","none","store owner","no_commited","0","USA","yes_only","republican","no","no_limitedMeat","disagree_moderate","disagree_moderate","agree_moderate","agree_strong","n/a",41,"god","delores_gleitman_deceased","both equally",3485,0,8.15622332319462,0,0,0.0256410256410256,0
"120","S2","Hunger",55,"male","white","college_some","none","store owner","no_commited","0","USA","yes_only","republican","no","no_limitedMeat","disagree_moderate","disagree_moderate","agree_moderate","agree_strong","n/a",42,"toby_chimp","charlie_dog","both equally",3477,0,8.15392513200786,0,0,0.0256410256410256,0
"121","S2","Hunger",55,"male","white","college_some","none","store owner","no_commited","0","USA","yes_only","republican","no","no_limitedMeat","disagree_moderate","disagree_moderate","agree_moderate","agree_strong","n/a",43,"sharon_harvey_woman","fetus","much more left",2961,-2,7.99328232810159,0,0,0.0256410256410256,0
"122","S2","Hunger",55,"male","white","college_some","none","store owner","no_commited","0","USA","yes_only","republican","no","no_limitedMeat","disagree_moderate","disagree_moderate","agree_moderate","agree_strong","n/a",44,"kismet_robot","delores_gleitman_deceased","both equally",8457,0,9.04274977978222,0,0,0.0256410256410256,0
"123","S2","Hunger",55,"male","white","college_some","none","store owner","no_commited","0","USA","yes_only","republican","no","no_limitedMeat","disagree_moderate","disagree_moderate","agree_moderate","agree_strong","n/a",45,"sharon_harvey_woman","todd_billingsley_man","both equally",1030,0,6.93731408122368,0,0,0.0256410256410256,0
"124","S2","Hunger",55,"male","white","college_some","none","store owner","no_commited","0","USA","yes_only","republican","no","no_limitedMeat","disagree_moderate","disagree_moderate","agree_moderate","agree_strong","n/a",46,"green_frog","kismet_robot","much more left",2808,-2,7.9402277651457,0,0,0.0256410256410256,0
"125","S2","Hunger",55,"male","white","college_some","none","store owner","no_commited","0","USA","yes_only","republican","no","no_limitedMeat","disagree_moderate","disagree_moderate","agree_moderate","agree_strong","n/a",47,"samantha_hill_girl","gerald_schiff_pvs","much more left",1944,-2,7.57250298502038,0,0,0.0256410256410256,0
"126","S2","Hunger",55,"male","white","college_some","none","store owner","no_commited","0","USA","yes_only","republican","no","no_limitedMeat","disagree_moderate","disagree_moderate","agree_moderate","agree_strong","n/a",48,"delores_gleitman_deceased","sharon_harvey_woman","much more right",1685,2,7.42952084278646,0,0,0.0256410256410256,0
"127","S2","Hunger",55,"male","white","college_some","none","store owner","no_commited","0","USA","yes_only","republican","no","no_limitedMeat","disagree_moderate","disagree_moderate","agree_moderate","agree_strong","n/a",49,"nicholas_gannon_baby","todd_billingsley_man","both equally",1609,0,7.38336814699238,0,0,0.0256410256410256,0
"128","S2","Hunger",55,"male","white","college_some","none","store owner","no_commited","0","USA","yes_only","republican","no","no_limitedMeat","disagree_moderate","disagree_moderate","agree_moderate","agree_strong","n/a",50,"you","samantha_hill_girl","both equally",1493,0,7.30854279753919,0,0,0.0256410256410256,0
"129","S2","Hunger",55,"male","white","college_some","none","store owner","no_commited","0","USA","yes_only","republican","no","no_limitedMeat","disagree_moderate","disagree_moderate","agree_moderate","agree_strong","n/a",51,"toby_chimp","green_frog","much more left",2806,-2,7.93951526066241,0,0,0.0256410256410256,0
"130","S2","Hunger",55,"male","white","college_some","none","store owner","no_commited","0","USA","yes_only","republican","no","no_limitedMeat","disagree_moderate","disagree_moderate","agree_moderate","agree_strong","n/a",52,"delores_gleitman_deceased","toby_chimp","much more right",1665,2,7.41758040241454,0,0,0.0256410256410256,0
"131","S2","Hunger",55,"male","white","college_some","none","store owner","no_commited","0","USA","yes_only","republican","no","no_limitedMeat","disagree_moderate","disagree_moderate","agree_moderate","agree_strong","n/a",53,"toby_chimp","kismet_robot","much more left",2628,-2,7.8739783796045,0,0,0.0256410256410256,0
"132","S2","Hunger",55,"male","white","college_some","none","store owner","no_commited","0","USA","yes_only","republican","no","no_limitedMeat","disagree_moderate","disagree_moderate","agree_moderate","agree_strong","n/a",54,"samantha_hill_girl","sharon_harvey_woman","both equally",1652,0,7.40974195408092,0,0,0.0256410256410256,0
"133","S2","Hunger",55,"male","white","college_some","none","store owner","no_commited","0","USA","yes_only","republican","no","no_limitedMeat","disagree_moderate","disagree_moderate","agree_moderate","agree_strong","n/a",55,"nicholas_gannon_baby","toby_chimp","both equally",1253,0,7.13329595489607,0,0,0.0256410256410256,0
"134","S2","Hunger",55,"male","white","college_some","none","store owner","no_commited","0","USA","yes_only","republican","no","no_limitedMeat","disagree_moderate","disagree_moderate","agree_moderate","agree_strong","n/a",56,"charlie_dog","nicholas_gannon_baby","both equally",1219,0,7.10578612948127,0,0,0.0256410256410256,0
"135","S2","Hunger",55,"male","white","college_some","none","store owner","no_commited","0","USA","yes_only","republican","no","no_limitedMeat","disagree_moderate","disagree_moderate","agree_moderate","agree_strong","n/a",57,"gerald_schiff_pvs","todd_billingsley_man","much more right",1512,2,7.32118855673948,0,0,0.0256410256410256,0
"136","S2","Hunger",55,"male","white","college_some","none","store owner","no_commited","0","USA","yes_only","republican","no","no_limitedMeat","disagree_moderate","disagree_moderate","agree_moderate","agree_strong","n/a",58,"green_frog","sharon_harvey_woman","much more right",1768,2,7.47760424319759,0,0,0.0256410256410256,0
"137","S2","Hunger",55,"male","white","college_some","none","store owner","no_commited","0","USA","yes_only","republican","no","no_limitedMeat","disagree_moderate","disagree_moderate","agree_moderate","agree_strong","n/a",59,"charlie_dog","samantha_hill_girl","both equally",1404,0,7.24708058458576,0,0,0.0256410256410256,0
"138","S2","Hunger",55,"male","white","college_some","none","store owner","no_commited","0","USA","yes_only","republican","no","no_limitedMeat","disagree_moderate","disagree_moderate","agree_moderate","agree_strong","n/a",60,"fetus","charlie_dog","much more right",3200,2,8.07090608878782,0,0,0.0256410256410256,0
"139","S2","Hunger",55,"male","white","college_some","none","store owner","no_commited","0","USA","yes_only","republican","no","no_limitedMeat","disagree_moderate","disagree_moderate","agree_moderate","agree_strong","n/a",61,"samantha_hill_girl","todd_billingsley_man","both equally",1281,0,7.15539630189673,0,0,0.0256410256410256,0
"140","S2","Hunger",55,"male","white","college_some","none","store owner","no_commited","0","USA","yes_only","republican","no","no_limitedMeat","disagree_moderate","disagree_moderate","agree_moderate","agree_strong","n/a",62,"nicholas_gannon_baby","god","much more left",3165,-2,8.05990833457828,0,0,0.0256410256410256,0
"141","S2","Hunger",55,"male","white","college_some","none","store owner","no_commited","0","USA","yes_only","republican","no","no_limitedMeat","disagree_moderate","disagree_moderate","agree_moderate","agree_strong","n/a",63,"you","sharon_harvey_woman","both equally",1901,0,7.55013534248843,0,0,0.0256410256410256,0
"142","S2","Hunger",55,"male","white","college_some","none","store owner","no_commited","0","USA","yes_only","republican","no","no_limitedMeat","disagree_moderate","disagree_moderate","agree_moderate","agree_strong","n/a",64,"green_frog","fetus","slightly more left",3273,-1,8.09346227450118,0,0,0.0256410256410256,0
"143","S2","Hunger",55,"male","white","college_some","none","store owner","no_commited","0","USA","yes_only","republican","no","no_limitedMeat","disagree_moderate","disagree_moderate","agree_moderate","agree_strong","n/a",65,"you","charlie_dog","both equally",1435,0,7.26892012819372,0,0,0.0256410256410256,0
"144","S2","Hunger",55,"male","white","college_some","none","store owner","no_commited","0","USA","yes_only","republican","no","no_limitedMeat","disagree_moderate","disagree_moderate","agree_moderate","agree_strong","n/a",66,"gerald_schiff_pvs","toby_chimp","much more right",2219,2,7.70481192293259,0,0,0.0256410256410256,0
"145","S2","Hunger",55,"male","white","college_some","none","store owner","no_commited","0","USA","yes_only","republican","no","no_limitedMeat","disagree_moderate","disagree_moderate","agree_moderate","agree_strong","n/a",67,"delores_gleitman_deceased","samantha_hill_girl","much more right",2073,2,7.63675211243578,0,0,0.0256410256410256,0
"146","S2","Hunger",55,"male","white","college_some","none","store owner","no_commited","0","USA","yes_only","republican","no","no_limitedMeat","disagree_moderate","disagree_moderate","agree_moderate","agree_strong","n/a",68,"you","nicholas_gannon_baby","both equally",2838,0,7.95085485771999,0,0,0.0256410256410256,0
"147","S2","Hunger",55,"male","white","college_some","none","store owner","no_commited","0","USA","yes_only","republican","no","no_limitedMeat","disagree_moderate","disagree_moderate","agree_moderate","agree_strong","n/a",69,"samantha_hill_girl","green_frog","much more left",2022,-2,7.61184239958042,0,0,0.0256410256410256,0
"148","S2","Hunger",55,"male","white","college_some","none","store owner","no_commited","0","USA","yes_only","republican","no","no_limitedMeat","disagree_moderate","disagree_moderate","agree_moderate","agree_strong","n/a",70,"samantha_hill_girl","god","much more left",2143,-2,7.66996199547358,0,0,0.0256410256410256,0
"149","S2","Hunger",55,"male","white","college_some","none","store owner","no_commited","0","USA","yes_only","republican","no","no_limitedMeat","disagree_moderate","disagree_moderate","agree_moderate","agree_strong","n/a",71,"todd_billingsley_man","kismet_robot","much more left",2029,-2,7.61529833982581,0,0,0.0256410256410256,0
"150","S2","Hunger",55,"male","white","college_some","none","store owner","no_commited","0","USA","yes_only","republican","no","no_limitedMeat","disagree_moderate","disagree_moderate","agree_moderate","agree_strong","n/a",72,"you","toby_chimp","both equally",2887,0,7.96797317966293,0,0,0.0256410256410256,0
"151","S2","Hunger",55,"male","white","college_some","none","store owner","no_commited","0","USA","yes_only","republican","no","no_limitedMeat","disagree_moderate","disagree_moderate","agree_moderate","agree_strong","n/a",73,"sharon_harvey_woman","toby_chimp","both equally",1652,0,7.40974195408092,0,0,0.0256410256410256,0
"152","S2","Hunger",55,"male","white","college_some","none","store owner","no_commited","0","USA","yes_only","republican","no","no_limitedMeat","disagree_moderate","disagree_moderate","agree_moderate","agree_strong","n/a",74,"nicholas_gannon_baby","kismet_robot","much more left",1571,-2,7.35946763825562,0,0,0.0256410256410256,0
"153","S2","Hunger",55,"male","white","college_some","none","store owner","no_commited","0","USA","yes_only","republican","no","no_limitedMeat","disagree_moderate","disagree_moderate","agree_moderate","agree_strong","n/a",75,"you","kismet_robot","much more left",1286,-2,7.15929190479756,0,0,0.0256410256410256,0
"154","S2","Hunger",55,"male","white","college_some","none","store owner","no_commited","0","USA","yes_only","republican","no","no_limitedMeat","disagree_moderate","disagree_moderate","agree_moderate","agree_strong","n/a",76,"you","god","much more left",2597,-2,7.86211221166275,0,0,0.0256410256410256,0
"155","S2","Hunger",55,"male","white","college_some","none","store owner","no_commited","0","USA","yes_only","republican","no","no_limitedMeat","disagree_moderate","disagree_moderate","agree_moderate","agree_strong","n/a",77,"delores_gleitman_deceased","fetus","much more right",2826,2,7.94661756324447,0,0,0.0256410256410256,0
"156","S2","Hunger",55,"male","white","college_some","none","store owner","no_commited","0","USA","yes_only","republican","no","no_limitedMeat","disagree_moderate","disagree_moderate","agree_moderate","agree_strong","n/a",78,"gerald_schiff_pvs","charlie_dog","much more right",6768,2,8.81996090128606,0,0,0.0256410256410256,0
"157","S3","Self-Control",28,"female","white","grad_degree","christianity_evangelical","Ecologist","no","0","USA","yes_only","democrat","yes","yes","disagree_strong","disagree_strong","disagree_strong","neither","NA",1,"god","charlie_dog","much more right",9060,2,9.11162439903702,0,0,0,0
"158","S3","Self-Control",28,"female","white","grad_degree","christianity_evangelical","Ecologist","no","0","USA","yes_only","democrat","yes","yes","disagree_strong","disagree_strong","disagree_strong","neither","NA",2,"charlie_dog","samantha_hill_girl","much more right",1679,2,7.42595365707754,0,0,0,0
"159","S3","Self-Control",28,"female","white","grad_degree","christianity_evangelical","Ecologist","no","0","USA","yes_only","democrat","yes","yes","disagree_strong","disagree_strong","disagree_strong","neither","NA",3,"todd_billingsley_man","you","both equally",2145,0,7.67089483136212,0,0,0,0
"160","S3","Self-Control",28,"female","white","grad_degree","christianity_evangelical","Ecologist","no","0","USA","yes_only","democrat","yes","yes","disagree_strong","disagree_strong","disagree_strong","neither","NA",4,"toby_chimp","samantha_hill_girl","much more right",3461,2,8.14931284363534,0,0,0,0
"161","S3","Self-Control",28,"female","white","grad_degree","christianity_evangelical","Ecologist","no","0","USA","yes_only","democrat","yes","yes","disagree_strong","disagree_strong","disagree_strong","neither","NA",5,"gerald_schiff_pvs","god","both equally",3038,0,8.01895468315572,0,0,0,0
"162","S3","Self-Control",28,"female","white","grad_degree","christianity_evangelical","Ecologist","no","0","USA","yes_only","democrat","yes","yes","disagree_strong","disagree_strong","disagree_strong","neither","NA",6,"toby_chimp","sharon_harvey_woman","much more right",3078,2,8.03203531439882,0,0,0,0
"163","S3","Self-Control",28,"female","white","grad_degree","christianity_evangelical","Ecologist","no","0","USA","yes_only","democrat","yes","yes","disagree_strong","disagree_strong","disagree_strong","neither","NA",7,"fetus","nicholas_gannon_baby","much more right",1692,2,7.43366654016617,0,0,0,0
"164","S3","Self-Control",28,"female","white","grad_degree","christianity_evangelical","Ecologist","no","0","USA","yes_only","democrat","yes","yes","disagree_strong","disagree_strong","disagree_strong","neither","NA",8,"todd_billingsley_man","green_frog","much more left",1516,-2,7.32383056620232,0,0,0,0
"165","S3","Self-Control",28,"female","white","grad_degree","christianity_evangelical","Ecologist","no","0","USA","yes_only","democrat","yes","yes","disagree_strong","disagree_strong","disagree_strong","neither","NA",9,"you","charlie_dog","much more left",2381,-2,7.77527584648686,0,0,0,0
"166","S3","Self-Control",28,"female","white","grad_degree","christianity_evangelical","Ecologist","no","0","USA","yes_only","democrat","yes","yes","disagree_strong","disagree_strong","disagree_strong","neither","NA",10,"nicholas_gannon_baby","green_frog","much more left",1381,-2,7.23056315340929,0,0,0,0
"167","S3","Self-Control",28,"female","white","grad_degree","christianity_evangelical","Ecologist","no","0","USA","yes_only","democrat","yes","yes","disagree_strong","disagree_strong","disagree_strong","neither","NA",11,"toby_chimp","gerald_schiff_pvs","both equally",4024,0,8.30003171177957,0,0,0,0
"168","S3","Self-Control",28,"female","white","grad_degree","christianity_evangelical","Ecologist","no","0","USA","yes_only","democrat","yes","yes","disagree_strong","disagree_strong","disagree_strong","neither","NA",12,"sharon_harvey_woman","god","much more left",1990,-2,7.59588991771854,0,0,0,0
"169","S3","Self-Control",28,"female","white","grad_degree","christianity_evangelical","Ecologist","no","0","USA","yes_only","democrat","yes","yes","disagree_strong","disagree_strong","disagree_strong","neither","NA",13,"gerald_schiff_pvs","todd_billingsley_man","much more right",1796,2,7.49331724886215,0,0,0,0
"170","S3","Self-Control",28,"female","white","grad_degree","christianity_evangelical","Ecologist","no","0","USA","yes_only","democrat","yes","yes","disagree_strong","disagree_strong","disagree_strong","neither","NA",14,"sharon_harvey_woman","nicholas_gannon_baby","much more left",1499,-2,7.3125534981026,0,0,0,0
"171","S3","Self-Control",28,"female","white","grad_degree","christianity_evangelical","Ecologist","no","0","USA","yes_only","democrat","yes","yes","disagree_strong","disagree_strong","disagree_strong","neither","NA",15,"green_frog","charlie_dog","both equally",1975,0,7.58832367733522,0,0,0,0
"172","S3","Self-Control",28,"female","white","grad_degree","christianity_evangelical","Ecologist","no","0","USA","yes_only","democrat","yes","yes","disagree_strong","disagree_strong","disagree_strong","neither","NA",16,"samantha_hill_girl","delores_gleitman_deceased","much more left",1935,-2,7.56786260546388,0,0,0,0
"173","S3","Self-Control",28,"female","white","grad_degree","christianity_evangelical","Ecologist","no","0","USA","yes_only","democrat","yes","yes","disagree_strong","disagree_strong","disagree_strong","neither","NA",17,"delores_gleitman_deceased","gerald_schiff_pvs","both equally",2524,0,7.8336002236611,0,0,0,0
"174","S3","Self-Control",28,"female","white","grad_degree","christianity_evangelical","Ecologist","no","0","USA","yes_only","democrat","yes","yes","disagree_strong","disagree_strong","disagree_strong","neither","NA",18,"charlie_dog","toby_chimp","both equally",2116,0,7.65728279297819,0,0,0,0
"175","S3","Self-Control",28,"female","white","grad_degree","christianity_evangelical","Ecologist","no","0","USA","yes_only","democrat","yes","yes","disagree_strong","disagree_strong","disagree_strong","neither","NA",19,"todd_billingsley_man","fetus","much more left",1604,-2,7.38025578842646,0,0,0,0
"176","S3","Self-Control",28,"female","white","grad_degree","christianity_evangelical","Ecologist","no","0","USA","yes_only","democrat","yes","yes","disagree_strong","disagree_strong","disagree_strong","neither","NA",20,"kismet_robot","todd_billingsley_man","much more right",2344,2,7.7596141506969,0,0,0,0
"177","S3","Self-Control",28,"female","white","grad_degree","christianity_evangelical","Ecologist","no","0","USA","yes_only","democrat","yes","yes","disagree_strong","disagree_strong","disagree_strong","neither","NA",21,"delores_gleitman_deceased","toby_chimp","much more right",2045,2,7.6231530684769,0,0,0,0
"178","S3","Self-Control",28,"female","white","grad_degree","christianity_evangelical","Ecologist","no","0","USA","yes_only","democrat","yes","yes","disagree_strong","disagree_strong","disagree_strong","neither","NA",22,"god","toby_chimp","much more right",1253,2,7.13329595489607,0,0,0,0
"179","S3","Self-Control",28,"female","white","grad_degree","christianity_evangelical","Ecologist","no","0","USA","yes_only","democrat","yes","yes","disagree_strong","disagree_strong","disagree_strong","neither","NA",23,"kismet_robot","gerald_schiff_pvs","both equally",5960,0,8.6928257600594,0,0,0,0
"180","S3","Self-Control",28,"female","white","grad_degree","christianity_evangelical","Ecologist","no","0","USA","yes_only","democrat","yes","yes","disagree_strong","disagree_strong","disagree_strong","neither","NA",24,"kismet_robot","nicholas_gannon_baby","both equally",2437,0,7.79852305362521,0,0,0,0
"181","S3","Self-Control",28,"female","white","grad_degree","christianity_evangelical","Ecologist","no","0","USA","yes_only","democrat","yes","yes","disagree_strong","disagree_strong","disagree_strong","neither","NA",25,"delores_gleitman_deceased","you","much more right",1729,2,7.45529848568329,0,0,0,0
"182","S3","Self-Control",28,"female","white","grad_degree","christianity_evangelical","Ecologist","no","0","USA","yes_only","democrat","yes","yes","disagree_strong","disagree_strong","disagree_strong","neither","NA",26,"you","nicholas_gannon_baby","much more left",1656,-2,7.4121603349452,0,0,0,0
"183","S3","Self-Control",28,"female","white","grad_degree","christianity_evangelical","Ecologist","no","0","USA","yes_only","democrat","yes","yes","disagree_strong","disagree_strong","disagree_strong","neither","NA",27,"samantha_hill_girl","gerald_schiff_pvs","much more left",1525,-2,7.32974968904151,0,0,0,0
"184","S3","Self-Control",28,"female","white","grad_degree","christianity_evangelical","Ecologist","no","0","USA","yes_only","democrat","yes","yes","disagree_strong","disagree_strong","disagree_strong","neither","NA",28,"kismet_robot","you","much more right",1352,2,7.20934025660291,0,0,0,0
"185","S3","Self-Control",28,"female","white","grad_degree","christianity_evangelical","Ecologist","no","0","USA","yes_only","democrat","yes","yes","disagree_strong","disagree_strong","disagree_strong","neither","NA",29,"todd_billingsley_man","nicholas_gannon_baby","much more left",1399,-2,7.24351297466548,0,0,0,0
"186","S3","Self-Control",28,"female","white","grad_degree","christianity_evangelical","Ecologist","no","0","USA","yes_only","democrat","yes","yes","disagree_strong","disagree_strong","disagree_strong","neither","NA",30,"toby_chimp","todd_billingsley_man","much more right",1441,2,7.27309259599952,0,0,0,0
"187","S3","Self-Control",28,"female","white","grad_degree","christianity_evangelical","Ecologist","no","0","USA","yes_only","democrat","yes","yes","disagree_strong","disagree_strong","disagree_strong","neither","NA",31,"delores_gleitman_deceased","kismet_robot","both equally",1665,0,7.41758040241454,0,0,0,0
"188","S3","Self-Control",28,"female","white","grad_degree","christianity_evangelical","Ecologist","no","0","USA","yes_only","democrat","yes","yes","disagree_strong","disagree_strong","disagree_strong","neither","NA",32,"charlie_dog","nicholas_gannon_baby","both equally",5931,0,8.68794811183873,0,0,0,0
"189","S3","Self-Control",28,"female","white","grad_degree","christianity_evangelical","Ecologist","no","0","USA","yes_only","democrat","yes","yes","disagree_strong","disagree_strong","disagree_strong","neither","NA",33,"sharon_harvey_woman","you","both equally",2167,0,7.68109900153636,0,0,0,0
"190","S3","Self-Control",28,"female","white","grad_degree","christianity_evangelical","Ecologist","no","0","USA","yes_only","democrat","yes","yes","disagree_strong","disagree_strong","disagree_strong","neither","NA",34,"fetus","kismet_robot","slightly more right",3246,1,8.08517874807454,0,0,0,0
"191","S3","Self-Control",28,"female","white","grad_degree","christianity_evangelical","Ecologist","no","0","USA","yes_only","democrat","yes","yes","disagree_strong","disagree_strong","disagree_strong","neither","NA",35,"samantha_hill_girl","green_frog","much more left",1692,-2,7.43366654016617,0,0,0,0
"192","S3","Self-Control",28,"female","white","grad_degree","christianity_evangelical","Ecologist","no","0","USA","yes_only","democrat","yes","yes","disagree_strong","disagree_strong","disagree_strong","neither","NA",36,"nicholas_gannon_baby","toby_chimp","both equally",2094,0,7.64683139143048,0,0,0,0
"193","S3","Self-Control",28,"female","white","grad_degree","christianity_evangelical","Ecologist","no","0","USA","yes_only","democrat","yes","yes","disagree_strong","disagree_strong","disagree_strong","neither","NA",37,"sharon_harvey_woman","charlie_dog","much more left",1422,-2,7.25981961036319,0,0,0,0
"194","S3","Self-Control",28,"female","white","grad_degree","christianity_evangelical","Ecologist","no","0","USA","yes_only","democrat","yes","yes","disagree_strong","disagree_strong","disagree_strong","neither","NA",38,"samantha_hill_girl","kismet_robot","much more left",1562,-2,7.35372233039963,0,0,0,0
"195","S3","Self-Control",28,"female","white","grad_degree","christianity_evangelical","Ecologist","no","0","USA","yes_only","democrat","yes","yes","disagree_strong","disagree_strong","disagree_strong","neither","NA",39,"kismet_robot","charlie_dog","slightly more left",4087,-1,8.31556648356428,0,0,0,0
"196","S3","Self-Control",28,"female","white","grad_degree","christianity_evangelical","Ecologist","no","0","USA","yes_only","democrat","yes","yes","disagree_strong","disagree_strong","disagree_strong","neither","NA",40,"nicholas_gannon_baby","god","both equally",6351,0,8.75636755980297,0,0,0,0
"197","S3","Self-Control",28,"female","white","grad_degree","christianity_evangelical","Ecologist","no","0","USA","yes_only","democrat","yes","yes","disagree_strong","disagree_strong","disagree_strong","neither","NA",41,"charlie_dog","gerald_schiff_pvs","both equally",2154,0,7.67508185771633,0,0,0,0
"198","S3","Self-Control",28,"female","white","grad_degree","christianity_evangelical","Ecologist","no","0","USA","yes_only","democrat","yes","yes","disagree_strong","disagree_strong","disagree_strong","neither","NA",42,"sharon_harvey_woman","gerald_schiff_pvs","much more left",1697,-2,7.43661726523423,0,0,0,0
"199","S3","Self-Control",28,"female","white","grad_degree","christianity_evangelical","Ecologist","no","0","USA","yes_only","democrat","yes","yes","disagree_strong","disagree_strong","disagree_strong","neither","NA",43,"toby_chimp","kismet_robot","much more left",2482,-2,7.81681996576455,0,0,0,0
"200","S3","Self-Control",28,"female","white","grad_degree","christianity_evangelical","Ecologist","no","0","USA","yes_only","democrat","yes","yes","disagree_strong","disagree_strong","disagree_strong","neither","NA",44,"nicholas_gannon_baby","delores_gleitman_deceased","both equally",2026,0,7.61381868480863,0,0,0,0
"201","S3","Self-Control",28,"female","white","grad_degree","christianity_evangelical","Ecologist","no","0","USA","yes_only","democrat","yes","yes","disagree_strong","disagree_strong","disagree_strong","neither","NA",45,"fetus","god","both equally",3867,0,8.2602342916073,0,0,0,0
"202","S3","Self-Control",28,"female","white","grad_degree","christianity_evangelical","Ecologist","no","0","USA","yes_only","democrat","yes","yes","disagree_strong","disagree_strong","disagree_strong","neither","NA",46,"nicholas_gannon_baby","samantha_hill_girl","much more right",1882,2,7.54009032014532,0,0,0,0
"203","S3","Self-Control",28,"female","white","grad_degree","christianity_evangelical","Ecologist","no","0","USA","yes_only","democrat","yes","yes","disagree_strong","disagree_strong","disagree_strong","neither","NA",47,"sharon_harvey_woman","samantha_hill_girl","much more left",1368,-2,7.2211050981825,0,0,0,0
"204","S3","Self-Control",28,"female","white","grad_degree","christianity_evangelical","Ecologist","no","0","USA","yes_only","democrat","yes","yes","disagree_strong","disagree_strong","disagree_strong","neither","NA",48,"green_frog","god","both equally",4213,0,8.34593026197902,0,0,0,0
"205","S3","Self-Control",28,"female","white","grad_degree","christianity_evangelical","Ecologist","no","0","USA","yes_only","democrat","yes","yes","disagree_strong","disagree_strong","disagree_strong","neither","NA",49,"toby_chimp","you","slightly more right",4497,1,8.41116578677071,0,0,0,0
"206","S3","Self-Control",28,"female","white","grad_degree","christianity_evangelical","Ecologist","no","0","USA","yes_only","democrat","yes","yes","disagree_strong","disagree_strong","disagree_strong","neither","NA",50,"green_frog","toby_chimp","much more right",1547,2,7.34407285057307,0,0,0,0
"207","S3","Self-Control",28,"female","white","grad_degree","christianity_evangelical","Ecologist","no","0","USA","yes_only","democrat","yes","yes","disagree_strong","disagree_strong","disagree_strong","neither","NA",51,"fetus","green_frog","both equally",1805,0,7.49831587076698,0,0,0,0
"208","S3","Self-Control",28,"female","white","grad_degree","christianity_evangelical","Ecologist","no","0","USA","yes_only","democrat","yes","yes","disagree_strong","disagree_strong","disagree_strong","neither","NA",52,"delores_gleitman_deceased","sharon_harvey_woman","much more right",1472,2,7.29437729928882,0,0,0,0
"209","S3","Self-Control",28,"female","white","grad_degree","christianity_evangelical","Ecologist","no","0","USA","yes_only","democrat","yes","yes","disagree_strong","disagree_strong","disagree_strong","neither","NA",53,"todd_billingsley_man","god","much more left",1132,-2,7.03174125876313,0,0,0,0
"210","S3","Self-Control",28,"female","white","grad_degree","christianity_evangelical","Ecologist","no","0","USA","yes_only","democrat","yes","yes","disagree_strong","disagree_strong","disagree_strong","neither","NA",54,"you","samantha_hill_girl","much more left",1839,-2,7.51697722460432,0,0,0,0
"211","S3","Self-Control",28,"female","white","grad_degree","christianity_evangelical","Ecologist","no","0","USA","yes_only","democrat","yes","yes","disagree_strong","disagree_strong","disagree_strong","neither","NA",55,"toby_chimp","fetus","much more left",1792,-2,7.49108759353488,0,0,0,0
"212","S3","Self-Control",28,"female","white","grad_degree","christianity_evangelical","Ecologist","no","0","USA","yes_only","democrat","yes","yes","disagree_strong","disagree_strong","disagree_strong","neither","NA",56,"kismet_robot","green_frog","slightly more left",2382,-1,7.77569574991525,0,0,0,0
"213","S3","Self-Control",28,"female","white","grad_degree","christianity_evangelical","Ecologist","no","0","USA","yes_only","democrat","yes","yes","disagree_strong","disagree_strong","disagree_strong","neither","NA",57,"gerald_schiff_pvs","you","much more right",1850,2,7.52294091807237,0,0,0,0
"214","S3","Self-Control",28,"female","white","grad_degree","christianity_evangelical","Ecologist","no","0","USA","yes_only","democrat","yes","yes","disagree_strong","disagree_strong","disagree_strong","neither","NA",58,"sharon_harvey_woman","todd_billingsley_man","both equally",1462,0,7.28756064030972,0,0,0,0
"215","S3","Self-Control",28,"female","white","grad_degree","christianity_evangelical","Ecologist","no","0","USA","yes_only","democrat","yes","yes","disagree_strong","disagree_strong","disagree_strong","neither","NA",59,"delores_gleitman_deceased","green_frog","both equally",3308,0,8.10409905614358,0,0,0,0
"216","S3","Self-Control",28,"female","white","grad_degree","christianity_evangelical","Ecologist","no","0","USA","yes_only","democrat","yes","yes","disagree_strong","disagree_strong","disagree_strong","neither","NA",60,"todd_billingsley_man","delores_gleitman_deceased","much more left",1218,-2,7.10496544826984,0,0,0,0
"217","S3","Self-Control",28,"female","white","grad_degree","christianity_evangelical","Ecologist","no","0","USA","yes_only","democrat","yes","yes","disagree_strong","disagree_strong","disagree_strong","neither","NA",61,"charlie_dog","todd_billingsley_man","much more right",2381,2,7.77527584648686,0,0,0,0
"218","S3","Self-Control",28,"female","white","grad_degree","christianity_evangelical","Ecologist","no","0","USA","yes_only","democrat","yes","yes","disagree_strong","disagree_strong","disagree_strong","neither","NA",62,"fetus","gerald_schiff_pvs","both equally",2398,0,7.78239033558746,0,0,0,0
"219","S3","Self-Control",28,"female","white","grad_degree","christianity_evangelical","Ecologist","no","0","USA","yes_only","democrat","yes","yes","disagree_strong","disagree_strong","disagree_strong","neither","NA",63,"god","kismet_robot","slightly more right",2445,1,7.80180040190897,0,0,0,0
"220","S3","Self-Control",28,"female","white","grad_degree","christianity_evangelical","Ecologist","no","0","USA","yes_only","democrat","yes","yes","disagree_strong","disagree_strong","disagree_strong","neither","NA",64,"green_frog","you","much more right",1553,2,7.34794382314869,0,0,0,0
"221","S3","Self-Control",28,"female","white","grad_degree","christianity_evangelical","Ecologist","no","0","USA","yes_only","democrat","yes","yes","disagree_strong","disagree_strong","disagree_strong","neither","NA",65,"you","fetus","much more left",1313,-2,7.1800698743028,0,0,0,0
"222","S3","Self-Control",28,"female","white","grad_degree","christianity_evangelical","Ecologist","no","0","USA","yes_only","democrat","yes","yes","disagree_strong","disagree_strong","disagree_strong","neither","NA",66,"sharon_harvey_woman","green_frog","much more left",1244,-2,7.12608727329912,0,0,0,0
"223","S3","Self-Control",28,"female","white","grad_degree","christianity_evangelical","Ecologist","no","0","USA","yes_only","democrat","yes","yes","disagree_strong","disagree_strong","disagree_strong","neither","NA",67,"god","delores_gleitman_deceased","both equally",1396,0,7.24136628332232,0,0,0,0
"224","S3","Self-Control",28,"female","white","grad_degree","christianity_evangelical","Ecologist","no","0","USA","yes_only","democrat","yes","yes","disagree_strong","disagree_strong","disagree_strong","neither","NA",68,"delores_gleitman_deceased","charlie_dog","both equally",2909,0,7.9755646584952,0,0,0,0
"225","S3","Self-Control",28,"female","white","grad_degree","christianity_evangelical","Ecologist","no","0","USA","yes_only","democrat","yes","yes","disagree_strong","disagree_strong","disagree_strong","neither","NA",69,"kismet_robot","sharon_harvey_woman","much more right",2522,2,7.83280751652486,0,0,0,0
"226","S3","Self-Control",28,"female","white","grad_degree","christianity_evangelical","Ecologist","no","0","USA","yes_only","democrat","yes","yes","disagree_strong","disagree_strong","disagree_strong","neither","NA",70,"fetus","delores_gleitman_deceased","both equally",5298,0,8.57508466983201,0,0,0,0
"227","S3","Self-Control",28,"female","white","grad_degree","christianity_evangelical","Ecologist","no","0","USA","yes_only","democrat","yes","yes","disagree_strong","disagree_strong","disagree_strong","neither","NA",71,"green_frog","gerald_schiff_pvs","both equally",1702,0,7.43955930913332,0,0,0,0
"228","S3","Self-Control",28,"female","white","grad_degree","christianity_evangelical","Ecologist","no","0","USA","yes_only","democrat","yes","yes","disagree_strong","disagree_strong","disagree_strong","neither","NA",72,"samantha_hill_girl","fetus","much more left",1678,-2,7.42535788702715,0,0,0,0
"229","S3","Self-Control",28,"female","white","grad_degree","christianity_evangelical","Ecologist","no","0","USA","yes_only","democrat","yes","yes","disagree_strong","disagree_strong","disagree_strong","neither","NA",73,"nicholas_gannon_baby","gerald_schiff_pvs","both equally",1699,0,7.43779512167193,0,0,0,0
"230","S3","Self-Control",28,"female","white","grad_degree","christianity_evangelical","Ecologist","no","0","USA","yes_only","democrat","yes","yes","disagree_strong","disagree_strong","disagree_strong","neither","NA",74,"charlie_dog","fetus","slightly more left",2560,-1,7.84776253747361,0,0,0,0
"231","S3","Self-Control",28,"female","white","grad_degree","christianity_evangelical","Ecologist","no","0","USA","yes_only","democrat","yes","yes","disagree_strong","disagree_strong","disagree_strong","neither","NA",75,"god","you","much more right",2118,2,7.65822752616135,0,0,0,0
"232","S3","Self-Control",28,"female","white","grad_degree","christianity_evangelical","Ecologist","no","0","USA","yes_only","democrat","yes","yes","disagree_strong","disagree_strong","disagree_strong","neither","NA",76,"fetus","sharon_harvey_woman","much more right",1523,2,7.32843735289516,0,0,0,0
"233","S3","Self-Control",28,"female","white","grad_degree","christianity_evangelical","Ecologist","no","0","USA","yes_only","democrat","yes","yes","disagree_strong","disagree_strong","disagree_strong","neither","NA",77,"god","samantha_hill_girl","much more right",1202,2,7.09174211509515,0,0,0,0
"234","S3","Self-Control",28,"female","white","grad_degree","christianity_evangelical","Ecologist","no","0","USA","yes_only","democrat","yes","yes","disagree_strong","disagree_strong","disagree_strong","neither","NA",78,"todd_billingsley_man","samantha_hill_girl","much more right",770,2,6.64639051484773,0,0,0,0
"235","S4","Fear",59,"male","white","college_assocDegree","christianity_evangelical","unemployed","yes","3","usa","yes_only","independent","yes","no_limitedMeat","agree_moderate","agree_strong","agree_little","disagree_little","the first description of Pam loaded funny and I could not access it.",1,"kismet_robot","sharon_harvey_woman","much more right",4488,2,8.40916244720253,0,0,0,0
"236","S4","Fear",59,"male","white","college_assocDegree","christianity_evangelical","unemployed","yes","3","usa","yes_only","independent","yes","no_limitedMeat","agree_moderate","agree_strong","agree_little","disagree_little","the first description of Pam loaded funny and I could not access it.",2,"nicholas_gannon_baby","toby_chimp","both equally",3435,0,8.14177220465645,0,0,0,0
"237","S4","Fear",59,"male","white","college_assocDegree","christianity_evangelical","unemployed","yes","3","usa","yes_only","independent","yes","no_limitedMeat","agree_moderate","agree_strong","agree_little","disagree_little","the first description of Pam loaded funny and I could not access it.",3,"green_frog","charlie_dog","both equally",2398,0,7.78239033558746,0,0,0,0
"238","S4","Fear",59,"male","white","college_assocDegree","christianity_evangelical","unemployed","yes","3","usa","yes_only","independent","yes","no_limitedMeat","agree_moderate","agree_strong","agree_little","disagree_little","the first description of Pam loaded funny and I could not access it.",4,"charlie_dog","nicholas_gannon_baby","slightly more right",4411,1,8.39185670010494,0,0,0,0
"239","S4","Fear",59,"male","white","college_assocDegree","christianity_evangelical","unemployed","yes","3","usa","yes_only","independent","yes","no_limitedMeat","agree_moderate","agree_strong","agree_little","disagree_little","the first description of Pam loaded funny and I could not access it.",5,"you","kismet_robot","much more left",3163,-2,8.05927622330565,0,0,0,0
"240","S4","Fear",59,"male","white","college_assocDegree","christianity_evangelical","unemployed","yes","3","usa","yes_only","independent","yes","no_limitedMeat","agree_moderate","agree_strong","agree_little","disagree_little","the first description of Pam loaded funny and I could not access it.",6,"fetus","charlie_dog","slightly more right",5442,1,8.60190191934319,0,0,0,0
"241","S4","Fear",59,"male","white","college_assocDegree","christianity_evangelical","unemployed","yes","3","usa","yes_only","independent","yes","no_limitedMeat","agree_moderate","agree_strong","agree_little","disagree_little","the first description of Pam loaded funny and I could not access it.",7,"samantha_hill_girl","fetus","much more left",2641,-2,7.87891291229713,0,0,0,0
"242","S4","Fear",59,"male","white","college_assocDegree","christianity_evangelical","unemployed","yes","3","usa","yes_only","independent","yes","no_limitedMeat","agree_moderate","agree_strong","agree_little","disagree_little","the first description of Pam loaded funny and I could not access it.",8,"todd_billingsley_man","toby_chimp","both equally",5414,0,8.59674347017425,0,0,0,0
"243","S4","Fear",59,"male","white","college_assocDegree","christianity_evangelical","unemployed","yes","3","usa","yes_only","independent","yes","no_limitedMeat","agree_moderate","agree_strong","agree_little","disagree_little","the first description of Pam loaded funny and I could not access it.",9,"sharon_harvey_woman","charlie_dog","both equally",1820,0,7.50659178007084,0,0,0,0
"244","S4","Fear",59,"male","white","college_assocDegree","christianity_evangelical","unemployed","yes","3","usa","yes_only","independent","yes","no_limitedMeat","agree_moderate","agree_strong","agree_little","disagree_little","the first description of Pam loaded funny and I could not access it.",10,"samantha_hill_girl","delores_gleitman_deceased","much more left",2771,-2,7.92696354486298,0,0,0,0
"245","S4","Fear",59,"male","white","college_assocDegree","christianity_evangelical","unemployed","yes","3","usa","yes_only","independent","yes","no_limitedMeat","agree_moderate","agree_strong","agree_little","disagree_little","the first description of Pam loaded funny and I could not access it.",11,"nicholas_gannon_baby","delores_gleitman_deceased","much more left",1547,-2,7.34407285057307,0,0,0,0
"246","S4","Fear",59,"male","white","college_assocDegree","christianity_evangelical","unemployed","yes","3","usa","yes_only","independent","yes","no_limitedMeat","agree_moderate","agree_strong","agree_little","disagree_little","the first description of Pam loaded funny and I could not access it.",12,"you","samantha_hill_girl","slightly more left",5999,-1,8.69934806765309,0,0,0,0
"247","S4","Fear",59,"male","white","college_assocDegree","christianity_evangelical","unemployed","yes","3","usa","yes_only","independent","yes","no_limitedMeat","agree_moderate","agree_strong","agree_little","disagree_little","the first description of Pam loaded funny and I could not access it.",13,"fetus","you","much more right",5402,2,8.59452453435256,0,0,0,0
"248","S4","Fear",59,"male","white","college_assocDegree","christianity_evangelical","unemployed","yes","3","usa","yes_only","independent","yes","no_limitedMeat","agree_moderate","agree_strong","agree_little","disagree_little","the first description of Pam loaded funny and I could not access it.",14,"samantha_hill_girl","god","much more left",5400,-2,8.59415423255237,0,0,0,0
"249","S4","Fear",59,"male","white","college_assocDegree","christianity_evangelical","unemployed","yes","3","usa","yes_only","independent","yes","no_limitedMeat","agree_moderate","agree_strong","agree_little","disagree_little","the first description of Pam loaded funny and I could not access it.",15,"todd_billingsley_man","you","both equally",3186,0,8.06652149046999,0,0,0,0
"250","S4","Fear",59,"male","white","college_assocDegree","christianity_evangelical","unemployed","yes","3","usa","yes_only","independent","yes","no_limitedMeat","agree_moderate","agree_strong","agree_little","disagree_little","the first description of Pam loaded funny and I could not access it.",16,"samantha_hill_girl","toby_chimp","both equally",2717,0,7.90728360942635,0,0,0,0
"251","S4","Fear",59,"male","white","college_assocDegree","christianity_evangelical","unemployed","yes","3","usa","yes_only","independent","yes","no_limitedMeat","agree_moderate","agree_strong","agree_little","disagree_little","the first description of Pam loaded funny and I could not access it.",17,"charlie_dog","samantha_hill_girl","both equally",1601,0,7.37838371299671,0,0,0,0
"252","S4","Fear",59,"male","white","college_assocDegree","christianity_evangelical","unemployed","yes","3","usa","yes_only","independent","yes","no_limitedMeat","agree_moderate","agree_strong","agree_little","disagree_little","the first description of Pam loaded funny and I could not access it.",18,"gerald_schiff_pvs","kismet_robot","both equally",5798,0,8.6652683094816,0,0,0,0
"253","S4","Fear",59,"male","white","college_assocDegree","christianity_evangelical","unemployed","yes","3","usa","yes_only","independent","yes","no_limitedMeat","agree_moderate","agree_strong","agree_little","disagree_little","the first description of Pam loaded funny and I could not access it.",19,"green_frog","delores_gleitman_deceased","slightly more left",3539,-1,8.17159948034546,0,0,0,0
"254","S4","Fear",59,"male","white","college_assocDegree","christianity_evangelical","unemployed","yes","3","usa","yes_only","independent","yes","no_limitedMeat","agree_moderate","agree_strong","agree_little","disagree_little","the first description of Pam loaded funny and I could not access it.",20,"god","you","much more right",2586,2,7.8578675593318,0,0,0,0
"255","S4","Fear",59,"male","white","college_assocDegree","christianity_evangelical","unemployed","yes","3","usa","yes_only","independent","yes","no_limitedMeat","agree_moderate","agree_strong","agree_little","disagree_little","the first description of Pam loaded funny and I could not access it.",21,"kismet_robot","fetus","much more right",4068,2,8.31090675716845,0,0,0,0
"256","S4","Fear",59,"male","white","college_assocDegree","christianity_evangelical","unemployed","yes","3","usa","yes_only","independent","yes","no_limitedMeat","agree_moderate","agree_strong","agree_little","disagree_little","the first description of Pam loaded funny and I could not access it.",22,"kismet_robot","samantha_hill_girl","much more right",1320,2,7.18538701558042,0,0,0,0
"257","S4","Fear",59,"male","white","college_assocDegree","christianity_evangelical","unemployed","yes","3","usa","yes_only","independent","yes","no_limitedMeat","agree_moderate","agree_strong","agree_little","disagree_little","the first description of Pam loaded funny and I could not access it.",23,"charlie_dog","toby_chimp","both equally",2180,0,7.68708015578313,0,0,0,0
"258","S4","Fear",59,"male","white","college_assocDegree","christianity_evangelical","unemployed","yes","3","usa","yes_only","independent","yes","no_limitedMeat","agree_moderate","agree_strong","agree_little","disagree_little","the first description of Pam loaded funny and I could not access it.",24,"sharon_harvey_woman","green_frog","slightly more left",3101,-1,8.03947991910045,0,0,0,0
"259","S4","Fear",59,"male","white","college_assocDegree","christianity_evangelical","unemployed","yes","3","usa","yes_only","independent","yes","no_limitedMeat","agree_moderate","agree_strong","agree_little","disagree_little","the first description of Pam loaded funny and I could not access it.",25,"god","toby_chimp","much more right",2977,2,7.99867136101578,0,0,0,0
"260","S4","Fear",59,"male","white","college_assocDegree","christianity_evangelical","unemployed","yes","3","usa","yes_only","independent","yes","no_limitedMeat","agree_moderate","agree_strong","agree_little","disagree_little","the first description of Pam loaded funny and I could not access it.",26,"todd_billingsley_man","god","much more left",1790,-2,7.4899708988348,0,0,0,0
"261","S4","Fear",59,"male","white","college_assocDegree","christianity_evangelical","unemployed","yes","3","usa","yes_only","independent","yes","no_limitedMeat","agree_moderate","agree_strong","agree_little","disagree_little","the first description of Pam loaded funny and I could not access it.",27,"charlie_dog","you","both equally",2750,0,7.91935619066062,0,0,0,0
"262","S4","Fear",59,"male","white","college_assocDegree","christianity_evangelical","unemployed","yes","3","usa","yes_only","independent","yes","no_limitedMeat","agree_moderate","agree_strong","agree_little","disagree_little","the first description of Pam loaded funny and I could not access it.",28,"toby_chimp","green_frog","both equally",2579,0,7.85515700588134,0,0,0,0
"263","S4","Fear",59,"male","white","college_assocDegree","christianity_evangelical","unemployed","yes","3","usa","yes_only","independent","yes","no_limitedMeat","agree_moderate","agree_strong","agree_little","disagree_little","the first description of Pam loaded funny and I could not access it.",29,"toby_chimp","delores_gleitman_deceased","much more left",2284,-2,7.7336835707759,0,0,0,0
"264","S4","Fear",59,"male","white","college_assocDegree","christianity_evangelical","unemployed","yes","3","usa","yes_only","independent","yes","no_limitedMeat","agree_moderate","agree_strong","agree_little","disagree_little","the first description of Pam loaded funny and I could not access it.",30,"fetus","gerald_schiff_pvs","both equally",4054,0,8.30745932701195,0,0,0,0
"265","S4","Fear",59,"male","white","college_assocDegree","christianity_evangelical","unemployed","yes","3","usa","yes_only","independent","yes","no_limitedMeat","agree_moderate","agree_strong","agree_little","disagree_little","the first description of Pam loaded funny and I could not access it.",31,"gerald_schiff_pvs","green_frog","both equally",3396,0,8.13035354743124,0,0,0,0
"266","S4","Fear",59,"male","white","college_assocDegree","christianity_evangelical","unemployed","yes","3","usa","yes_only","independent","yes","no_limitedMeat","agree_moderate","agree_strong","agree_little","disagree_little","the first description of Pam loaded funny and I could not access it.",32,"todd_billingsley_man","fetus","slightly more left",3988,-1,8.29104513108173,0,0,0,0
"267","S4","Fear",59,"male","white","college_assocDegree","christianity_evangelical","unemployed","yes","3","usa","yes_only","independent","yes","no_limitedMeat","agree_moderate","agree_strong","agree_little","disagree_little","the first description of Pam loaded funny and I could not access it.",33,"kismet_robot","todd_billingsley_man","much more right",2166,2,7.68063742756094,0,0,0,0
"268","S4","Fear",59,"male","white","college_assocDegree","christianity_evangelical","unemployed","yes","3","usa","yes_only","independent","yes","no_limitedMeat","agree_moderate","agree_strong","agree_little","disagree_little","the first description of Pam loaded funny and I could not access it.",34,"kismet_robot","toby_chimp","much more right",2341,2,7.75833346749091,0,0,0,0
"269","S4","Fear",59,"male","white","college_assocDegree","christianity_evangelical","unemployed","yes","3","usa","yes_only","independent","yes","no_limitedMeat","agree_moderate","agree_strong","agree_little","disagree_little","the first description of Pam loaded funny and I could not access it.",35,"nicholas_gannon_baby","sharon_harvey_woman","slightly more right",2767,1,7.92551897978693,0,0,0,0
"270","S4","Fear",59,"male","white","college_assocDegree","christianity_evangelical","unemployed","yes","3","usa","yes_only","independent","yes","no_limitedMeat","agree_moderate","agree_strong","agree_little","disagree_little","the first description of Pam loaded funny and I could not access it.",36,"kismet_robot","nicholas_gannon_baby","much more right",2315,2,7.74716496652033,0,0,0,0
"271","S4","Fear",59,"male","white","college_assocDegree","christianity_evangelical","unemployed","yes","3","usa","yes_only","independent","yes","no_limitedMeat","agree_moderate","agree_strong","agree_little","disagree_little","the first description of Pam loaded funny and I could not access it.",37,"gerald_schiff_pvs","charlie_dog","slightly more right",5337,1,8.58241897633394,0,0,0,0
"272","S4","Fear",59,"male","white","college_assocDegree","christianity_evangelical","unemployed","yes","3","usa","yes_only","independent","yes","no_limitedMeat","agree_moderate","agree_strong","agree_little","disagree_little","the first description of Pam loaded funny and I could not access it.",38,"fetus","toby_chimp","slightly more right",2228,1,7.70885960104718,0,0,0,0
"273","S4","Fear",59,"male","white","college_assocDegree","christianity_evangelical","unemployed","yes","3","usa","yes_only","independent","yes","no_limitedMeat","agree_moderate","agree_strong","agree_little","disagree_little","the first description of Pam loaded funny and I could not access it.",39,"nicholas_gannon_baby","you","much more right",3722,2,8.2220164372022,0,0,0,0
"274","S4","Fear",59,"male","white","college_assocDegree","christianity_evangelical","unemployed","yes","3","usa","yes_only","independent","yes","no_limitedMeat","agree_moderate","agree_strong","agree_little","disagree_little","the first description of Pam loaded funny and I could not access it.",40,"green_frog","nicholas_gannon_baby","both equally",2656,0,7.88457651059632,0,0,0,0
"275","S4","Fear",59,"male","white","college_assocDegree","christianity_evangelical","unemployed","yes","3","usa","yes_only","independent","yes","no_limitedMeat","agree_moderate","agree_strong","agree_little","disagree_little","the first description of Pam loaded funny and I could not access it.",41,"you","gerald_schiff_pvs","much more left",3524,-2,8.16735198705607,0,0,0,0
"276","S4","Fear",59,"male","white","college_assocDegree","christianity_evangelical","unemployed","yes","3","usa","yes_only","independent","yes","no_limitedMeat","agree_moderate","agree_strong","agree_little","disagree_little","the first description of Pam loaded funny and I could not access it.",42,"fetus","nicholas_gannon_baby","slightly more right",2375,1,7.77275271646874,0,0,0,0
"277","S4","Fear",59,"male","white","college_assocDegree","christianity_evangelical","unemployed","yes","3","usa","yes_only","independent","yes","no_limitedMeat","agree_moderate","agree_strong","agree_little","disagree_little","the first description of Pam loaded funny and I could not access it.",43,"delores_gleitman_deceased","todd_billingsley_man","much more right",2051,2,7.62608275807238,0,0,0,0
"278","S4","Fear",59,"male","white","college_assocDegree","christianity_evangelical","unemployed","yes","3","usa","yes_only","independent","yes","no_limitedMeat","agree_moderate","agree_strong","agree_little","disagree_little","the first description of Pam loaded funny and I could not access it.",44,"gerald_schiff_pvs","god","much more left",3463,-2,8.14989054440242,0,0,0,0
"279","S4","Fear",59,"male","white","college_assocDegree","christianity_evangelical","unemployed","yes","3","usa","yes_only","independent","yes","no_limitedMeat","agree_moderate","agree_strong","agree_little","disagree_little","the first description of Pam loaded funny and I could not access it.",45,"todd_billingsley_man","samantha_hill_girl","both equally",3484,0,8.15593633797239,0,0,0,0
"280","S4","Fear",59,"male","white","college_assocDegree","christianity_evangelical","unemployed","yes","3","usa","yes_only","independent","yes","no_limitedMeat","agree_moderate","agree_strong","agree_little","disagree_little","the first description of Pam loaded funny and I could not access it.",46,"charlie_dog","kismet_robot","much more left",2118,-2,7.65822752616135,0,0,0,0
"281","S4","Fear",59,"male","white","college_assocDegree","christianity_evangelical","unemployed","yes","3","usa","yes_only","independent","yes","no_limitedMeat","agree_moderate","agree_strong","agree_little","disagree_little","the first description of Pam loaded funny and I could not access it.",47,"delores_gleitman_deceased","you","much more right",2777,2,7.9291264873068,0,0,0,0
"282","S4","Fear",59,"male","white","college_assocDegree","christianity_evangelical","unemployed","yes","3","usa","yes_only","independent","yes","no_limitedMeat","agree_moderate","agree_strong","agree_little","disagree_little","the first description of Pam loaded funny and I could not access it.",48,"god","delores_gleitman_deceased","much more left",2767,-2,7.92551897978693,0,0,0,0
"283","S4","Fear",59,"male","white","college_assocDegree","christianity_evangelical","unemployed","yes","3","usa","yes_only","independent","yes","no_limitedMeat","agree_moderate","agree_strong","agree_little","disagree_little","the first description of Pam loaded funny and I could not access it.",49,"todd_billingsley_man","green_frog","both equally",3883,0,8.26436332973167,0,0,0,0
"284","S4","Fear",59,"male","white","college_assocDegree","christianity_evangelical","unemployed","yes","3","usa","yes_only","independent","yes","no_limitedMeat","agree_moderate","agree_strong","agree_little","disagree_little","the first description of Pam loaded funny and I could not access it.",50,"delores_gleitman_deceased","kismet_robot","both equally",2319,0,7.74889133725553,0,0,0,0
"285","S4","Fear",59,"male","white","college_assocDegree","christianity_evangelical","unemployed","yes","3","usa","yes_only","independent","yes","no_limitedMeat","agree_moderate","agree_strong","agree_little","disagree_little","the first description of Pam loaded funny and I could not access it.",51,"fetus","green_frog","both equally",1713,0,7.44600149832412,0,0,0,0
"286","S4","Fear",59,"male","white","college_assocDegree","christianity_evangelical","unemployed","yes","3","usa","yes_only","independent","yes","no_limitedMeat","agree_moderate","agree_strong","agree_little","disagree_little","the first description of Pam loaded funny and I could not access it.",52,"nicholas_gannon_baby","gerald_schiff_pvs","slightly more left",3609,-1,8.19118600464279,0,0,0,0
"287","S4","Fear",59,"male","white","college_assocDegree","christianity_evangelical","unemployed","yes","3","usa","yes_only","independent","yes","no_limitedMeat","agree_moderate","agree_strong","agree_little","disagree_little","the first description of Pam loaded funny and I could not access it.",53,"delores_gleitman_deceased","fetus","slightly more right",3004,1,8.00770001288403,0,0,0,0
"288","S4","Fear",59,"male","white","college_assocDegree","christianity_evangelical","unemployed","yes","3","usa","yes_only","independent","yes","no_limitedMeat","agree_moderate","agree_strong","agree_little","disagree_little","the first description of Pam loaded funny and I could not access it.",54,"charlie_dog","todd_billingsley_man","both equally",2122,0,7.66011431917393,0,0,0,0
"289","S4","Fear",59,"male","white","college_assocDegree","christianity_evangelical","unemployed","yes","3","usa","yes_only","independent","yes","no_limitedMeat","agree_moderate","agree_strong","agree_little","disagree_little","the first description of Pam loaded funny and I could not access it.",55,"sharon_harvey_woman","samantha_hill_girl","slightly more left",3230,-1,8.0802374162167,0,0,0,0
"290","S4","Fear",59,"male","white","college_assocDegree","christianity_evangelical","unemployed","yes","3","usa","yes_only","independent","yes","no_limitedMeat","agree_moderate","agree_strong","agree_little","disagree_little","the first description of Pam loaded funny and I could not access it.",56,"samantha_hill_girl","nicholas_gannon_baby","slightly more left",3454,-1,8.14728825870662,0,0,0,0
"291","S4","Fear",59,"male","white","college_assocDegree","christianity_evangelical","unemployed","yes","3","usa","yes_only","independent","yes","no_limitedMeat","agree_moderate","agree_strong","agree_little","disagree_little","the first description of Pam loaded funny and I could not access it.",57,"sharon_harvey_woman","gerald_schiff_pvs","much more left",2303,-2,7.74196789982069,0,0,0,0
"292","S4","Fear",59,"male","white","college_assocDegree","christianity_evangelical","unemployed","yes","3","usa","yes_only","independent","yes","no_limitedMeat","agree_moderate","agree_strong","agree_little","disagree_little","the first description of Pam loaded funny and I could not access it.",58,"gerald_schiff_pvs","samantha_hill_girl","slightly more right",2280,1,7.73193072194849,0,0,0,0
"293","S4","Fear",59,"male","white","college_assocDegree","christianity_evangelical","unemployed","yes","3","usa","yes_only","independent","yes","no_limitedMeat","agree_moderate","agree_strong","agree_little","disagree_little","the first description of Pam loaded funny and I could not access it.",59,"gerald_schiff_pvs","toby_chimp","both equally",3058,0,8.02551638648901,0,0,0,0
"294","S4","Fear",59,"male","white","college_assocDegree","christianity_evangelical","unemployed","yes","3","usa","yes_only","independent","yes","no_limitedMeat","agree_moderate","agree_strong","agree_little","disagree_little","the first description of Pam loaded funny and I could not access it.",60,"god","nicholas_gannon_baby","much more right",3025,2,8.01466637046494,0,0,0,0
"295","S4","Fear",59,"male","white","college_assocDegree","christianity_evangelical","unemployed","yes","3","usa","yes_only","independent","yes","no_limitedMeat","agree_moderate","agree_strong","agree_little","disagree_little","the first description of Pam loaded funny and I could not access it.",61,"sharon_harvey_woman","delores_gleitman_deceased","much more left",2132,-2,7.66481578528574,0,0,0,0
"296","S4","Fear",59,"male","white","college_assocDegree","christianity_evangelical","unemployed","yes","3","usa","yes_only","independent","yes","no_limitedMeat","agree_moderate","agree_strong","agree_little","disagree_little","the first description of Pam loaded funny and I could not access it.",62,"samantha_hill_girl","green_frog","much more left",2204,-2,7.6980291702728,0,0,0,0
"297","S4","Fear",59,"male","white","college_assocDegree","christianity_evangelical","unemployed","yes","3","usa","yes_only","independent","yes","no_limitedMeat","agree_moderate","agree_strong","agree_little","disagree_little","the first description of Pam loaded funny and I could not access it.",63,"green_frog","god","much more left",2703,-2,7.90211754627645,0,0,0,0
"298","S4","Fear",59,"male","white","college_assocDegree","christianity_evangelical","unemployed","yes","3","usa","yes_only","independent","yes","no_limitedMeat","agree_moderate","agree_strong","agree_little","disagree_little","the first description of Pam loaded funny and I could not access it.",64,"you","green_frog","slightly more left",3181,-1,8.06495089174914,0,0,0,0
"299","S4","Fear",59,"male","white","college_assocDegree","christianity_evangelical","unemployed","yes","3","usa","yes_only","independent","yes","no_limitedMeat","agree_moderate","agree_strong","agree_little","disagree_little","the first description of Pam loaded funny and I could not access it.",65,"god","kismet_robot","both equally",3420,0,8.13739583005665,0,0,0,0
"300","S4","Fear",59,"male","white","college_assocDegree","christianity_evangelical","unemployed","yes","3","usa","yes_only","independent","yes","no_limitedMeat","agree_moderate","agree_strong","agree_little","disagree_little","the first description of Pam loaded funny and I could not access it.",66,"sharon_harvey_woman","god","much more left",3564,-2,8.1786387885907,0,0,0,0
"301","S4","Fear",59,"male","white","college_assocDegree","christianity_evangelical","unemployed","yes","3","usa","yes_only","independent","yes","no_limitedMeat","agree_moderate","agree_strong","agree_little","disagree_little","the first description of Pam loaded funny and I could not access it.",67,"god","charlie_dog","much more right",2486,2,7.81843027207066,0,0,0,0
"302","S4","Fear",59,"male","white","college_assocDegree","christianity_evangelical","unemployed","yes","3","usa","yes_only","independent","yes","no_limitedMeat","agree_moderate","agree_strong","agree_little","disagree_little","the first description of Pam loaded funny and I could not access it.",68,"fetus","god","much more left",2683,-2,7.89469085042562,0,0,0,0
