"","subid","condition","age","gender","ethnicity","education","religionChild","job","maritalStatus","children","country","englishNative","politicalIdeology","studyMoralPhil","vegetarian","beliefGod","beliefAfterlife","beliefTradition","beliefLeader","comments","trialNum","leftCharacter","rightCharacter","response","rt","responseNum"
"1","S1","Fear",37,"male","white","college_bachDegree","christianity_protestant","IT support","yes","3","USA","yes_only","republican","yes","no","agree_strong","agree_strong","agree_moderate","agree_strong","NA",1,"toby_chimp","fetus","much more left",11431,-2
"2","S1","Fear",37,"male","white","college_bachDegree","christianity_protestant","IT support","yes","3","USA","yes_only","republican","yes","no","agree_strong","agree_strong","agree_moderate","agree_strong","NA",2,"samantha_hill_girl","you","both equally",7812,0
"3","S1","Fear",37,"male","white","college_bachDegree","christianity_protestant","IT support","yes","3","USA","yes_only","republican","yes","no","agree_strong","agree_strong","agree_moderate","agree_strong","NA",3,"todd_billingsley_man","delores_gleitman_deceased","much more left",3462,-2
"4","S1","Fear",37,"male","white","college_bachDegree","christianity_protestant","IT support","yes","3","USA","yes_only","republican","yes","no","agree_strong","agree_strong","agree_moderate","agree_strong","NA",4,"toby_chimp","gerald_schiff_pvs","much more left",3910,-2
"5","S1","Fear",37,"male","white","college_bachDegree","christianity_protestant","IT support","yes","3","USA","yes_only","republican","yes","no","agree_strong","agree_strong","agree_moderate","agree_strong","NA",5,"kismet_robot","toby_chimp","much more right",3598,2
"6","S1","Fear",37,"male","white","college_bachDegree","christianity_protestant","IT support","yes","3","USA","yes_only","republican","yes","no","agree_strong","agree_strong","agree_moderate","agree_strong","NA",6,"green_frog","samantha_hill_girl","much more right",2838,2
"7","S1","Fear",37,"male","white","college_bachDegree","christianity_protestant","IT support","yes","3","USA","yes_only","republican","yes","no","agree_strong","agree_strong","agree_moderate","agree_strong","NA",7,"you","delores_gleitman_deceased","much more left",1862,-2
"8","S1","Fear",37,"male","white","college_bachDegree","christianity_protestant","IT support","yes","3","USA","yes_only","republican","yes","no","agree_strong","agree_strong","agree_moderate","agree_strong","NA",8,"fetus","gerald_schiff_pvs","slightly more right",5046,1
"9","S1","Fear",37,"male","white","college_bachDegree","christianity_protestant","IT support","yes","3","USA","yes_only","republican","yes","no","agree_strong","agree_strong","agree_moderate","agree_strong","NA",9,"kismet_robot","fetus","slightly more right",2799,1
"10","S1","Fear",37,"male","white","college_bachDegree","christianity_protestant","IT support","yes","3","USA","yes_only","republican","yes","no","agree_strong","agree_strong","agree_moderate","agree_strong","NA",10,"todd_billingsley_man","nicholas_gannon_baby","much more left",3175,-2
"11","S1","Fear",37,"male","white","college_bachDegree","christianity_protestant","IT support","yes","3","USA","yes_only","republican","yes","no","agree_strong","agree_strong","agree_moderate","agree_strong","NA",11,"delores_gleitman_deceased","god","much more right",3389,2
"12","S1","Fear",37,"male","white","college_bachDegree","christianity_protestant","IT support","yes","3","USA","yes_only","republican","yes","no","agree_strong","agree_strong","agree_moderate","agree_strong","NA",12,"fetus","delores_gleitman_deceased","much more left",4004,-2
"13","S1","Fear",37,"male","white","college_bachDegree","christianity_protestant","IT support","yes","3","USA","yes_only","republican","yes","no","agree_strong","agree_strong","agree_moderate","agree_strong","NA",13,"kismet_robot","todd_billingsley_man","much more right",2374,2
"14","S1","Fear",37,"male","white","college_bachDegree","christianity_protestant","IT support","yes","3","USA","yes_only","republican","yes","no","agree_strong","agree_strong","agree_moderate","agree_strong","NA",14,"charlie_dog","toby_chimp","both equally",7143,0
"15","S1","Fear",37,"male","white","college_bachDegree","christianity_protestant","IT support","yes","3","USA","yes_only","republican","yes","no","agree_strong","agree_strong","agree_moderate","agree_strong","NA",15,"kismet_robot","samantha_hill_girl","much more right",2105,2
"16","S1","Fear",37,"male","white","college_bachDegree","christianity_protestant","IT support","yes","3","USA","yes_only","republican","yes","no","agree_strong","agree_strong","agree_moderate","agree_strong","NA",16,"fetus","todd_billingsley_man","much more right",1715,2
"17","S1","Fear",37,"male","white","college_bachDegree","christianity_protestant","IT support","yes","3","USA","yes_only","republican","yes","no","agree_strong","agree_strong","agree_moderate","agree_strong","NA",17,"delores_gleitman_deceased","sharon_harvey_woman","much more right",2047,2
"18","S1","Fear",37,"male","white","college_bachDegree","christianity_protestant","IT support","yes","3","USA","yes_only","republican","yes","no","agree_strong","agree_strong","agree_moderate","agree_strong","NA",18,"samantha_hill_girl","nicholas_gannon_baby","much more left",3310,-2
"19","S1","Fear",37,"male","white","college_bachDegree","christianity_protestant","IT support","yes","3","USA","yes_only","republican","yes","no","agree_strong","agree_strong","agree_moderate","agree_strong","NA",19,"nicholas_gannon_baby","green_frog","much more left",1278,-2
"20","S1","Fear",37,"male","white","college_bachDegree","christianity_protestant","IT support","yes","3","USA","yes_only","republican","yes","no","agree_strong","agree_strong","agree_moderate","agree_strong","NA",20,"fetus","nicholas_gannon_baby","much more right",1879,2
"21","S1","Fear",37,"male","white","college_bachDegree","christianity_protestant","IT support","yes","3","USA","yes_only","republican","yes","no","agree_strong","agree_strong","agree_moderate","agree_strong","NA",21,"green_frog","kismet_robot","slightly more left",3328,-1
"22","S1","Fear",37,"male","white","college_bachDegree","christianity_protestant","IT support","yes","3","USA","yes_only","republican","yes","no","agree_strong","agree_strong","agree_moderate","agree_strong","NA",22,"green_frog","fetus","slightly more left",3182,-1
"23","S1","Fear",37,"male","white","college_bachDegree","christianity_protestant","IT support","yes","3","USA","yes_only","republican","yes","no","agree_strong","agree_strong","agree_moderate","agree_strong","NA",23,"charlie_dog","kismet_robot","much more left",2174,-2
"24","S1","Fear",37,"male","white","college_bachDegree","christianity_protestant","IT support","yes","3","USA","yes_only","republican","yes","no","agree_strong","agree_strong","agree_moderate","agree_strong","NA",24,"gerald_schiff_pvs","you","much more right",1709,2
"25","S1","Fear",37,"male","white","college_bachDegree","christianity_protestant","IT support","yes","3","USA","yes_only","republican","yes","no","agree_strong","agree_strong","agree_moderate","agree_strong","NA",25,"gerald_schiff_pvs","nicholas_gannon_baby","much more right",1686,2
"26","S1","Fear",37,"male","white","college_bachDegree","christianity_protestant","IT support","yes","3","USA","yes_only","republican","yes","no","agree_strong","agree_strong","agree_moderate","agree_strong","NA",26,"charlie_dog","delores_gleitman_deceased","much more left",1541,-2
"27","S1","Fear",37,"male","white","college_bachDegree","christianity_protestant","IT support","yes","3","USA","yes_only","republican","yes","no","agree_strong","agree_strong","agree_moderate","agree_strong","NA",27,"delores_gleitman_deceased","green_frog","much more right",1734,2
"28","S1","Fear",37,"male","white","college_bachDegree","christianity_protestant","IT support","yes","3","USA","yes_only","republican","yes","no","agree_strong","agree_strong","agree_moderate","agree_strong","NA",28,"charlie_dog","you","much more right",2237,2
"29","S1","Fear",37,"male","white","college_bachDegree","christianity_protestant","IT support","yes","3","USA","yes_only","republican","yes","no","agree_strong","agree_strong","agree_moderate","agree_strong","NA",29,"you","todd_billingsley_man","both equally",2367,0
"30","S1","Fear",37,"male","white","college_bachDegree","christianity_protestant","IT support","yes","3","USA","yes_only","republican","yes","no","agree_strong","agree_strong","agree_moderate","agree_strong","NA",30,"sharon_harvey_woman","nicholas_gannon_baby","slightly more left",1998,-1
"31","S1","Fear",37,"male","white","college_bachDegree","christianity_protestant","IT support","yes","3","USA","yes_only","republican","yes","no","agree_strong","agree_strong","agree_moderate","agree_strong","NA",31,"nicholas_gannon_baby","toby_chimp","slightly more left",1693,-1
"32","S1","Fear",37,"male","white","college_bachDegree","christianity_protestant","IT support","yes","3","USA","yes_only","republican","yes","no","agree_strong","agree_strong","agree_moderate","agree_strong","NA",32,"toby_chimp","sharon_harvey_woman","much more right",2326,2
"33","S1","Fear",37,"male","white","college_bachDegree","christianity_protestant","IT support","yes","3","USA","yes_only","republican","yes","no","agree_strong","agree_strong","agree_moderate","agree_strong","NA",33,"sharon_harvey_woman","green_frog","much more left",2006,-2
"34","S1","Fear",37,"male","white","college_bachDegree","christianity_protestant","IT support","yes","3","USA","yes_only","republican","yes","no","agree_strong","agree_strong","agree_moderate","agree_strong","NA",34,"green_frog","charlie_dog","slightly more right",3069,1
"35","S1","Fear",37,"male","white","college_bachDegree","christianity_protestant","IT support","yes","3","USA","yes_only","republican","yes","no","agree_strong","agree_strong","agree_moderate","agree_strong","NA",35,"samantha_hill_girl","fetus","much more left",2326,-2
"36","S1","Fear",37,"male","white","college_bachDegree","christianity_protestant","IT support","yes","3","USA","yes_only","republican","yes","no","agree_strong","agree_strong","agree_moderate","agree_strong","NA",36,"toby_chimp","god","much more right",9030,2
"37","S1","Fear",37,"male","white","college_bachDegree","christianity_protestant","IT support","yes","3","USA","yes_only","republican","yes","no","agree_strong","agree_strong","agree_moderate","agree_strong","NA",37,"sharon_harvey_woman","gerald_schiff_pvs","much more left",1677,-2
"38","S1","Fear",37,"male","white","college_bachDegree","christianity_protestant","IT support","yes","3","USA","yes_only","republican","yes","no","agree_strong","agree_strong","agree_moderate","agree_strong","NA",38,"delores_gleitman_deceased","kismet_robot","much more right",2662,2
"39","S1","Fear",37,"male","white","college_bachDegree","christianity_protestant","IT support","yes","3","USA","yes_only","republican","yes","no","agree_strong","agree_strong","agree_moderate","agree_strong","NA",39,"green_frog","todd_billingsley_man","much more right",2286,2
"40","S1","Fear",37,"male","white","college_bachDegree","christianity_protestant","IT support","yes","3","USA","yes_only","republican","yes","no","agree_strong","agree_strong","agree_moderate","agree_strong","NA",40,"gerald_schiff_pvs","charlie_dog","slightly more left",2110,-1
"41","S1","Fear",37,"male","white","college_bachDegree","christianity_protestant","IT support","yes","3","USA","yes_only","republican","yes","no","agree_strong","agree_strong","agree_moderate","agree_strong","NA",41,"toby_chimp","delores_gleitman_deceased","much more left",1895,-2
"42","S1","Fear",37,"male","white","college_bachDegree","christianity_protestant","IT support","yes","3","USA","yes_only","republican","yes","no","agree_strong","agree_strong","agree_moderate","agree_strong","NA",42,"kismet_robot","nicholas_gannon_baby","much more right",2263,2
"43","S1","Fear",37,"male","white","college_bachDegree","christianity_protestant","IT support","yes","3","USA","yes_only","republican","yes","no","agree_strong","agree_strong","agree_moderate","agree_strong","NA",43,"sharon_harvey_woman","you","both equally",1575,0
"44","S1","Fear",37,"male","white","college_bachDegree","christianity_protestant","IT support","yes","3","USA","yes_only","republican","yes","no","agree_strong","agree_strong","agree_moderate","agree_strong","NA",44,"god","gerald_schiff_pvs","much more left",4278,-2
"45","S1","Fear",37,"male","white","college_bachDegree","christianity_protestant","IT support","yes","3","USA","yes_only","republican","yes","no","agree_strong","agree_strong","agree_moderate","agree_strong","NA",45,"god","sharon_harvey_woman","much more left",1542,-2
"46","S1","Fear",37,"male","white","college_bachDegree","christianity_protestant","IT support","yes","3","USA","yes_only","republican","yes","no","agree_strong","agree_strong","agree_moderate","agree_strong","NA",46,"toby_chimp","todd_billingsley_man","much more right",1743,2
"47","S1","Fear",37,"male","white","college_bachDegree","christianity_protestant","IT support","yes","3","USA","yes_only","republican","yes","no","agree_strong","agree_strong","agree_moderate","agree_strong","NA",47,"god","kismet_robot","much more left",1494,-2
"48","S1","Fear",37,"male","white","college_bachDegree","christianity_protestant","IT support","yes","3","USA","yes_only","republican","yes","no","agree_strong","agree_strong","agree_moderate","agree_strong","NA",48,"delores_gleitman_deceased","gerald_schiff_pvs","much more right",2190,2
"49","S1","Fear",37,"male","white","college_bachDegree","christianity_protestant","IT support","yes","3","USA","yes_only","republican","yes","no","agree_strong","agree_strong","agree_moderate","agree_strong","NA",49,"gerald_schiff_pvs","kismet_robot","much more left",1807,-2
"50","S1","Fear",37,"male","white","college_bachDegree","christianity_protestant","IT support","yes","3","USA","yes_only","republican","yes","no","agree_strong","agree_strong","agree_moderate","agree_strong","NA",50,"nicholas_gannon_baby","delores_gleitman_deceased","much more left",1703,-2
"51","S1","Fear",37,"male","white","college_bachDegree","christianity_protestant","IT support","yes","3","USA","yes_only","republican","yes","no","agree_strong","agree_strong","agree_moderate","agree_strong","NA",51,"samantha_hill_girl","delores_gleitman_deceased","much more left",1006,-2
"52","S1","Fear",37,"male","white","college_bachDegree","christianity_protestant","IT support","yes","3","USA","yes_only","republican","yes","no","agree_strong","agree_strong","agree_moderate","agree_strong","NA",52,"todd_billingsley_man","sharon_harvey_woman","both equally",1502,0
"53","S1","Fear",37,"male","white","college_bachDegree","christianity_protestant","IT support","yes","3","USA","yes_only","republican","yes","no","agree_strong","agree_strong","agree_moderate","agree_strong","NA",53,"nicholas_gannon_baby","you","slightly more right",3407,1
"54","S1","Fear",37,"male","white","college_bachDegree","christianity_protestant","IT support","yes","3","USA","yes_only","republican","yes","no","agree_strong","agree_strong","agree_moderate","agree_strong","NA",54,"you","kismet_robot","much more left",7807,-2
"55","S1","Fear",37,"male","white","college_bachDegree","christianity_protestant","IT support","yes","3","USA","yes_only","republican","yes","no","agree_strong","agree_strong","agree_moderate","agree_strong","NA",55,"charlie_dog","god","much more right",1705,2
"56","S1","Fear",37,"male","white","college_bachDegree","christianity_protestant","IT support","yes","3","USA","yes_only","republican","yes","no","agree_strong","agree_strong","agree_moderate","agree_strong","NA",56,"green_frog","god","much more right",1510,2
"57","S1","Fear",37,"male","white","college_bachDegree","christianity_protestant","IT support","yes","3","USA","yes_only","republican","yes","no","agree_strong","agree_strong","agree_moderate","agree_strong","NA",57,"gerald_schiff_pvs","green_frog","slightly more right",5047,1
"58","S1","Fear",37,"male","white","college_bachDegree","christianity_protestant","IT support","yes","3","USA","yes_only","republican","yes","no","agree_strong","agree_strong","agree_moderate","agree_strong","NA",58,"samantha_hill_girl","god","much more right",1926,2
"59","S1","Fear",37,"male","white","college_bachDegree","christianity_protestant","IT support","yes","3","USA","yes_only","republican","yes","no","agree_strong","agree_strong","agree_moderate","agree_strong","NA",59,"god","todd_billingsley_man","much more left",4427,-2
"60","S1","Fear",37,"male","white","college_bachDegree","christianity_protestant","IT support","yes","3","USA","yes_only","republican","yes","no","agree_strong","agree_strong","agree_moderate","agree_strong","NA",60,"samantha_hill_girl","toby_chimp","much more left",2886,-2
"61","S1","Fear",37,"male","white","college_bachDegree","christianity_protestant","IT support","yes","3","USA","yes_only","republican","yes","no","agree_strong","agree_strong","agree_moderate","agree_strong","NA",61,"todd_billingsley_man","gerald_schiff_pvs","much more left",6703,-2
"62","S1","Fear",37,"male","white","college_bachDegree","christianity_protestant","IT support","yes","3","USA","yes_only","republican","yes","no","agree_strong","agree_strong","agree_moderate","agree_strong","NA",62,"samantha_hill_girl","sharon_harvey_woman","slightly more right",2206,1
"63","S1","Fear",37,"male","white","college_bachDegree","christianity_protestant","IT support","yes","3","USA","yes_only","republican","yes","no","agree_strong","agree_strong","agree_moderate","agree_strong","NA",63,"toby_chimp","green_frog","slightly more left",1726,-1
"64","S1","Fear",37,"male","white","college_bachDegree","christianity_protestant","IT support","yes","3","USA","yes_only","republican","yes","no","agree_strong","agree_strong","agree_moderate","agree_strong","NA",64,"you","green_frog","much more left",2062,-2
"65","S1","Fear",37,"male","white","college_bachDegree","christianity_protestant","IT support","yes","3","USA","yes_only","republican","yes","no","agree_strong","agree_strong","agree_moderate","agree_strong","NA",65,"toby_chimp","you","much more right",1782,2
"66","S1","Fear",37,"male","white","college_bachDegree","christianity_protestant","IT support","yes","3","USA","yes_only","republican","yes","no","agree_strong","agree_strong","agree_moderate","agree_strong","NA",66,"todd_billingsley_man","samantha_hill_girl","slightly more left",2046,-1
"67","S1","Fear",37,"male","white","college_bachDegree","christianity_protestant","IT support","yes","3","USA","yes_only","republican","yes","no","agree_strong","agree_strong","agree_moderate","agree_strong","NA",67,"nicholas_gannon_baby","charlie_dog","slightly more left",3710,-1
"68","S1","Fear",37,"male","white","college_bachDegree","christianity_protestant","IT support","yes","3","USA","yes_only","republican","yes","no","agree_strong","agree_strong","agree_moderate","agree_strong","NA",68,"you","fetus","much more left",1333,-2
"69","S1","Fear",37,"male","white","college_bachDegree","christianity_protestant","IT support","yes","3","USA","yes_only","republican","yes","no","agree_strong","agree_strong","agree_moderate","agree_strong","NA",69,"fetus","sharon_harvey_woman","much more right",1710,2
"70","S1","Fear",37,"male","white","college_bachDegree","christianity_protestant","IT support","yes","3","USA","yes_only","republican","yes","no","agree_strong","agree_strong","agree_moderate","agree_strong","NA",70,"charlie_dog","samantha_hill_girl","much more right",2910,2
"71","S1","Fear",37,"male","white","college_bachDegree","christianity_protestant","IT support","yes","3","USA","yes_only","republican","yes","no","agree_strong","agree_strong","agree_moderate","agree_strong","NA",71,"fetus","charlie_dog","slightly more left",6290,-1
"72","S1","Fear",37,"male","white","college_bachDegree","christianity_protestant","IT support","yes","3","USA","yes_only","republican","yes","no","agree_strong","agree_strong","agree_moderate","agree_strong","NA",72,"god","fetus","much more left",1384,-2
"73","S1","Fear",37,"male","white","college_bachDegree","christianity_protestant","IT support","yes","3","USA","yes_only","republican","yes","no","agree_strong","agree_strong","agree_moderate","agree_strong","NA",73,"charlie_dog","sharon_harvey_woman","much more right",2414,2
"74","S1","Fear",37,"male","white","college_bachDegree","christianity_protestant","IT support","yes","3","USA","yes_only","republican","yes","no","agree_strong","agree_strong","agree_moderate","agree_strong","NA",74,"god","nicholas_gannon_baby","much more left",1864,-2
"75","S1","Fear",37,"male","white","college_bachDegree","christianity_protestant","IT support","yes","3","USA","yes_only","republican","yes","no","agree_strong","agree_strong","agree_moderate","agree_strong","NA",75,"samantha_hill_girl","gerald_schiff_pvs","much more left",2391,-2
"76","S1","Fear",37,"male","white","college_bachDegree","christianity_protestant","IT support","yes","3","USA","yes_only","republican","yes","no","agree_strong","agree_strong","agree_moderate","agree_strong","NA",76,"god","you","much more left",1573,-2
"77","S1","Fear",37,"male","white","college_bachDegree","christianity_protestant","IT support","yes","3","USA","yes_only","republican","yes","no","agree_strong","agree_strong","agree_moderate","agree_strong","NA",77,"todd_billingsley_man","charlie_dog","much more left",1575,-2
"78","S1","Fear",37,"male","white","college_bachDegree","christianity_protestant","IT support","yes","3","USA","yes_only","republican","yes","no","agree_strong","agree_strong","agree_moderate","agree_strong","NA",78,"sharon_harvey_woman","kismet_robot","much more left",1511,-2
"79","S2","Hunger",55,"male","white","college_some","none","store owner","no_commited","0","USA","yes_only","republican","no","no_limitedMeat","disagree_moderate","disagree_moderate","agree_moderate","agree_strong","n/a",1,"green_frog","delores_gleitman_deceased","much more left",5610,-2
"80","S2","Hunger",55,"male","white","college_some","none","store owner","no_commited","0","USA","yes_only","republican","no","no_limitedMeat","disagree_moderate","disagree_moderate","agree_moderate","agree_strong","n/a",2,"gerald_schiff_pvs","fetus","both equally",6910,0
"81","S2","Hunger",55,"male","white","college_some","none","store owner","no_commited","0","USA","yes_only","republican","no","no_limitedMeat","disagree_moderate","disagree_moderate","agree_moderate","agree_strong","n/a",3,"green_frog","god","much more left",5011,-2
"82","S2","Hunger",55,"male","white","college_some","none","store owner","no_commited","0","USA","yes_only","republican","no","no_limitedMeat","disagree_moderate","disagree_moderate","agree_moderate","agree_strong","n/a",4,"god","sharon_harvey_woman","much more right",1983,2
"83","S2","Hunger",55,"male","white","college_some","none","store owner","no_commited","0","USA","yes_only","republican","no","no_limitedMeat","disagree_moderate","disagree_moderate","agree_moderate","agree_strong","n/a",5,"samantha_hill_girl","kismet_robot","much more right",98,2
"84","S2","Hunger",55,"male","white","college_some","none","store owner","no_commited","0","USA","yes_only","republican","no","no_limitedMeat","disagree_moderate","disagree_moderate","agree_moderate","agree_strong","n/a",6,"samantha_hill_girl","fetus","much more left",3995,-2
"85","S2","Hunger",55,"male","white","college_some","none","store owner","no_commited","0","USA","yes_only","republican","no","no_limitedMeat","disagree_moderate","disagree_moderate","agree_moderate","agree_strong","n/a",7,"fetus","toby_chimp","much more right",9229,2
"86","S2","Hunger",55,"male","white","college_some","none","store owner","no_commited","0","USA","yes_only","republican","no","no_limitedMeat","disagree_moderate","disagree_moderate","agree_moderate","agree_strong","n/a",8,"delores_gleitman_deceased","charlie_dog","much more right",5141,2
"87","S2","Hunger",55,"male","white","college_some","none","store owner","no_commited","0","USA","yes_only","republican","no","no_limitedMeat","disagree_moderate","disagree_moderate","agree_moderate","agree_strong","n/a",9,"god","fetus","much more right",2404,2
"88","S2","Hunger",55,"male","white","college_some","none","store owner","no_commited","0","USA","yes_only","republican","no","no_limitedMeat","disagree_moderate","disagree_moderate","agree_moderate","agree_strong","n/a",10,"you","green_frog","much more left",3245,-2
"89","S2","Hunger",55,"male","white","college_some","none","store owner","no_commited","0","USA","yes_only","republican","no","no_limitedMeat","disagree_moderate","disagree_moderate","agree_moderate","agree_strong","n/a",11,"sharon_harvey_woman","nicholas_gannon_baby","both equally",4997,0
"90","S2","Hunger",55,"male","white","college_some","none","store owner","no_commited","0","USA","yes_only","republican","no","no_limitedMeat","disagree_moderate","disagree_moderate","agree_moderate","agree_strong","n/a",12,"nicholas_gannon_baby","samantha_hill_girl","both equally",9332,0
"91","S2","Hunger",55,"male","white","college_some","none","store owner","no_commited","0","USA","yes_only","republican","no","no_limitedMeat","disagree_moderate","disagree_moderate","agree_moderate","agree_strong","n/a",13,"god","todd_billingsley_man","much more right",2870,2
"92","S2","Hunger",55,"male","white","college_some","none","store owner","no_commited","0","USA","yes_only","republican","no","no_limitedMeat","disagree_moderate","disagree_moderate","agree_moderate","agree_strong","n/a",14,"todd_billingsley_man","toby_chimp","both equally",2937,0
"93","S2","Hunger",55,"male","white","college_some","none","store owner","no_commited","0","USA","yes_only","republican","no","no_limitedMeat","disagree_moderate","disagree_moderate","agree_moderate","agree_strong","n/a",15,"gerald_schiff_pvs","green_frog","much more right",2486,2
"94","S2","Hunger",55,"male","white","college_some","none","store owner","no_commited","0","USA","yes_only","republican","no","no_limitedMeat","disagree_moderate","disagree_moderate","agree_moderate","agree_strong","n/a",16,"todd_billingsley_man","delores_gleitman_deceased","much more left",1608,-2
"95","S2","Hunger",55,"male","white","college_some","none","store owner","no_commited","0","USA","yes_only","republican","no","no_limitedMeat","disagree_moderate","disagree_moderate","agree_moderate","agree_strong","n/a",17,"charlie_dog","sharon_harvey_woman","much more left",50,-2
"96","S2","Hunger",55,"male","white","college_some","none","store owner","no_commited","0","USA","yes_only","republican","no","no_limitedMeat","disagree_moderate","disagree_moderate","agree_moderate","agree_strong","n/a",18,"charlie_dog","todd_billingsley_man","both equally",2246,0
"97","S2","Hunger",55,"male","white","college_some","none","store owner","no_commited","0","USA","yes_only","republican","no","no_limitedMeat","disagree_moderate","disagree_moderate","agree_moderate","agree_strong","n/a",19,"kismet_robot","gerald_schiff_pvs","slightly more right",5393,1
"98","S2","Hunger",55,"male","white","college_some","none","store owner","no_commited","0","USA","yes_only","republican","no","no_limitedMeat","disagree_moderate","disagree_moderate","agree_moderate","agree_strong","n/a",20,"green_frog","todd_billingsley_man","much more right",2674,2
"99","S2","Hunger",55,"male","white","college_some","none","store owner","no_commited","0","USA","yes_only","republican","no","no_limitedMeat","disagree_moderate","disagree_moderate","agree_moderate","agree_strong","n/a",21,"charlie_dog","kismet_robot","much more left",1533,-2
"100","S2","Hunger",55,"male","white","college_some","none","store owner","no_commited","0","USA","yes_only","republican","no","no_limitedMeat","disagree_moderate","disagree_moderate","agree_moderate","agree_strong","n/a",22,"nicholas_gannon_baby","green_frog","much more left",3625,-2
"101","S2","Hunger",55,"male","white","college_some","none","store owner","no_commited","0","USA","yes_only","republican","no","no_limitedMeat","disagree_moderate","disagree_moderate","agree_moderate","agree_strong","n/a",23,"toby_chimp","samantha_hill_girl","both equally",1528,0
"102","S2","Hunger",55,"male","white","college_some","none","store owner","no_commited","0","USA","yes_only","republican","no","no_limitedMeat","disagree_moderate","disagree_moderate","agree_moderate","agree_strong","n/a",24,"charlie_dog","green_frog","much more left",1986,-2
"103","S2","Hunger",55,"male","white","college_some","none","store owner","no_commited","0","USA","yes_only","republican","no","no_limitedMeat","disagree_moderate","disagree_moderate","agree_moderate","agree_strong","n/a",25,"fetus","kismet_robot","slightly more left",4061,-1
"104","S2","Hunger",55,"male","white","college_some","none","store owner","no_commited","0","USA","yes_only","republican","no","no_limitedMeat","disagree_moderate","disagree_moderate","agree_moderate","agree_strong","n/a",26,"toby_chimp","god","much more left",1961,-2
"105","S2","Hunger",55,"male","white","college_some","none","store owner","no_commited","0","USA","yes_only","republican","no","no_limitedMeat","disagree_moderate","disagree_moderate","agree_moderate","agree_strong","n/a",27,"charlie_dog","god","much more left",5072,-2
"106","S2","Hunger",55,"male","white","college_some","none","store owner","no_commited","0","USA","yes_only","republican","no","no_limitedMeat","disagree_moderate","disagree_moderate","agree_moderate","agree_strong","n/a",28,"fetus","todd_billingsley_man","much more right",1608,2
"107","S2","Hunger",55,"male","white","college_some","none","store owner","no_commited","0","USA","yes_only","republican","no","no_limitedMeat","disagree_moderate","disagree_moderate","agree_moderate","agree_strong","n/a",29,"sharon_harvey_woman","kismet_robot","much more left",1530,-2
"108","S2","Hunger",55,"male","white","college_some","none","store owner","no_commited","0","USA","yes_only","republican","no","no_limitedMeat","disagree_moderate","disagree_moderate","agree_moderate","agree_strong","n/a",30,"gerald_schiff_pvs","delores_gleitman_deceased","slightly more left",4271,-1
"109","S2","Hunger",55,"male","white","college_some","none","store owner","no_commited","0","USA","yes_only","republican","no","no_limitedMeat","disagree_moderate","disagree_moderate","agree_moderate","agree_strong","n/a",31,"sharon_harvey_woman","gerald_schiff_pvs","much more left",2270,-2
"110","S2","Hunger",55,"male","white","college_some","none","store owner","no_commited","0","USA","yes_only","republican","no","no_limitedMeat","disagree_moderate","disagree_moderate","agree_moderate","agree_strong","n/a",32,"nicholas_gannon_baby","fetus","much more left",1637,-2
"111","S2","Hunger",55,"male","white","college_some","none","store owner","no_commited","0","USA","yes_only","republican","no","no_limitedMeat","disagree_moderate","disagree_moderate","agree_moderate","agree_strong","n/a",33,"gerald_schiff_pvs","you","much more right",2070,2
"112","S2","Hunger",55,"male","white","college_some","none","store owner","no_commited","0","USA","yes_only","republican","no","no_limitedMeat","disagree_moderate","disagree_moderate","agree_moderate","agree_strong","n/a",34,"god","gerald_schiff_pvs","much more right",3867,2
"113","S2","Hunger",55,"male","white","college_some","none","store owner","no_commited","0","USA","yes_only","republican","no","no_limitedMeat","disagree_moderate","disagree_moderate","agree_moderate","agree_strong","n/a",35,"todd_billingsley_man","you","both equally",3155,0
"114","S2","Hunger",55,"male","white","college_some","none","store owner","no_commited","0","USA","yes_only","republican","no","no_limitedMeat","disagree_moderate","disagree_moderate","agree_moderate","agree_strong","n/a",36,"delores_gleitman_deceased","nicholas_gannon_baby","much more right",4701,2
"115","S2","Hunger",55,"male","white","college_some","none","store owner","no_commited","0","USA","yes_only","republican","no","no_limitedMeat","disagree_moderate","disagree_moderate","agree_moderate","agree_strong","n/a",37,"fetus","you","much more right",2314,2
"116","S2","Hunger",55,"male","white","college_some","none","store owner","no_commited","0","USA","yes_only","republican","no","no_limitedMeat","disagree_moderate","disagree_moderate","agree_moderate","agree_strong","n/a",38,"you","delores_gleitman_deceased","much more left",2063,-2
"117","S2","Hunger",55,"male","white","college_some","none","store owner","no_commited","0","USA","yes_only","republican","no","no_limitedMeat","disagree_moderate","disagree_moderate","agree_moderate","agree_strong","n/a",39,"gerald_schiff_pvs","nicholas_gannon_baby","much more right",1984,2
"118","S2","Hunger",55,"male","white","college_some","none","store owner","no_commited","0","USA","yes_only","republican","no","no_limitedMeat","disagree_moderate","disagree_moderate","agree_moderate","agree_strong","n/a",40,"god","kismet_robot","both equally",2228,0
"119","S2","Hunger",55,"male","white","college_some","none","store owner","no_commited","0","USA","yes_only","republican","no","no_limitedMeat","disagree_moderate","disagree_moderate","agree_moderate","agree_strong","n/a",41,"god","delores_gleitman_deceased","both equally",3485,0
"120","S2","Hunger",55,"male","white","college_some","none","store owner","no_commited","0","USA","yes_only","republican","no","no_limitedMeat","disagree_moderate","disagree_moderate","agree_moderate","agree_strong","n/a",42,"toby_chimp","charlie_dog","both equally",3477,0
"121","S2","Hunger",55,"male","white","college_some","none","store owner","no_commited","0","USA","yes_only","republican","no","no_limitedMeat","disagree_moderate","disagree_moderate","agree_moderate","agree_strong","n/a",43,"sharon_harvey_woman","fetus","much more left",2961,-2
"122","S2","Hunger",55,"male","white","college_some","none","store owner","no_commited","0","USA","yes_only","republican","no","no_limitedMeat","disagree_moderate","disagree_moderate","agree_moderate","agree_strong","n/a",44,"kismet_robot","delores_gleitman_deceased","both equally",8457,0
"123","S2","Hunger",55,"male","white","college_some","none","store owner","no_commited","0","USA","yes_only","republican","no","no_limitedMeat","disagree_moderate","disagree_moderate","agree_moderate","agree_strong","n/a",45,"sharon_harvey_woman","todd_billingsley_man","both equally",1030,0
"124","S2","Hunger",55,"male","white","college_some","none","store owner","no_commited","0","USA","yes_only","republican","no","no_limitedMeat","disagree_moderate","disagree_moderate","agree_moderate","agree_strong","n/a",46,"green_frog","kismet_robot","much more left",2808,-2
"125","S2","Hunger",55,"male","white","college_some","none","store owner","no_commited","0","USA","yes_only","republican","no","no_limitedMeat","disagree_moderate","disagree_moderate","agree_moderate","agree_strong","n/a",47,"samantha_hill_girl","gerald_schiff_pvs","much more left",1944,-2
"126","S2","Hunger",55,"male","white","college_some","none","store owner","no_commited","0","USA","yes_only","republican","no","no_limitedMeat","disagree_moderate","disagree_moderate","agree_moderate","agree_strong","n/a",48,"delores_gleitman_deceased","sharon_harvey_woman","much more right",1685,2
"127","S2","Hunger",55,"male","white","college_some","none","store owner","no_commited","0","USA","yes_only","republican","no","no_limitedMeat","disagree_moderate","disagree_moderate","agree_moderate","agree_strong","n/a",49,"nicholas_gannon_baby","todd_billingsley_man","both equally",1609,0
"128","S2","Hunger",55,"male","white","college_some","none","store owner","no_commited","0","USA","yes_only","republican","no","no_limitedMeat","disagree_moderate","disagree_moderate","agree_moderate","agree_strong","n/a",50,"you","samantha_hill_girl","both equally",1493,0
"129","S2","Hunger",55,"male","white","college_some","none","store owner","no_commited","0","USA","yes_only","republican","no","no_limitedMeat","disagree_moderate","disagree_moderate","agree_moderate","agree_strong","n/a",51,"toby_chimp","green_frog","much more left",2806,-2
"130","S2","Hunger",55,"male","white","college_some","none","store owner","no_commited","0","USA","yes_only","republican","no","no_limitedMeat","disagree_moderate","disagree_moderate","agree_moderate","agree_strong","n/a",52,"delores_gleitman_deceased","toby_chimp","much more right",1665,2
"131","S2","Hunger",55,"male","white","college_some","none","store owner","no_commited","0","USA","yes_only","republican","no","no_limitedMeat","disagree_moderate","disagree_moderate","agree_moderate","agree_strong","n/a",53,"toby_chimp","kismet_robot","much more left",2628,-2
"132","S2","Hunger",55,"male","white","college_some","none","store owner","no_commited","0","USA","yes_only","republican","no","no_limitedMeat","disagree_moderate","disagree_moderate","agree_moderate","agree_strong","n/a",54,"samantha_hill_girl","sharon_harvey_woman","both equally",1652,0
"133","S2","Hunger",55,"male","white","college_some","none","store owner","no_commited","0","USA","yes_only","republican","no","no_limitedMeat","disagree_moderate","disagree_moderate","agree_moderate","agree_strong","n/a",55,"nicholas_gannon_baby","toby_chimp","both equally",1253,0
"134","S2","Hunger",55,"male","white","college_some","none","store owner","no_commited","0","USA","yes_only","republican","no","no_limitedMeat","disagree_moderate","disagree_moderate","agree_moderate","agree_strong","n/a",56,"charlie_dog","nicholas_gannon_baby","both equally",1219,0
"135","S2","Hunger",55,"male","white","college_some","none","store owner","no_commited","0","USA","yes_only","republican","no","no_limitedMeat","disagree_moderate","disagree_moderate","agree_moderate","agree_strong","n/a",57,"gerald_schiff_pvs","todd_billingsley_man","much more right",1512,2
"136","S2","Hunger",55,"male","white","college_some","none","store owner","no_commited","0","USA","yes_only","republican","no","no_limitedMeat","disagree_moderate","disagree_moderate","agree_moderate","agree_strong","n/a",58,"green_frog","sharon_harvey_woman","much more right",1768,2
"137","S2","Hunger",55,"male","white","college_some","none","store owner","no_commited","0","USA","yes_only","republican","no","no_limitedMeat","disagree_moderate","disagree_moderate","agree_moderate","agree_strong","n/a",59,"charlie_dog","samantha_hill_girl","both equally",1404,0
"138","S2","Hunger",55,"male","white","college_some","none","store owner","no_commited","0","USA","yes_only","republican","no","no_limitedMeat","disagree_moderate","disagree_moderate","agree_moderate","agree_strong","n/a",60,"fetus","charlie_dog","much more right",3200,2
"139","S2","Hunger",55,"male","white","college_some","none","store owner","no_commited","0","USA","yes_only","republican","no","no_limitedMeat","disagree_moderate","disagree_moderate","agree_moderate","agree_strong","n/a",61,"samantha_hill_girl","todd_billingsley_man","both equally",1281,0
"140","S2","Hunger",55,"male","white","college_some","none","store owner","no_commited","0","USA","yes_only","republican","no","no_limitedMeat","disagree_moderate","disagree_moderate","agree_moderate","agree_strong","n/a",62,"nicholas_gannon_baby","god","much more left",3165,-2
"141","S2","Hunger",55,"male","white","college_some","none","store owner","no_commited","0","USA","yes_only","republican","no","no_limitedMeat","disagree_moderate","disagree_moderate","agree_moderate","agree_strong","n/a",63,"you","sharon_harvey_woman","both equally",1901,0
"142","S2","Hunger",55,"male","white","college_some","none","store owner","no_commited","0","USA","yes_only","republican","no","no_limitedMeat","disagree_moderate","disagree_moderate","agree_moderate","agree_strong","n/a",64,"green_frog","fetus","slightly more left",3273,-1
"143","S2","Hunger",55,"male","white","college_some","none","store owner","no_commited","0","USA","yes_only","republican","no","no_limitedMeat","disagree_moderate","disagree_moderate","agree_moderate","agree_strong","n/a",65,"you","charlie_dog","both equally",1435,0
"144","S2","Hunger",55,"male","white","college_some","none","store owner","no_commited","0","USA","yes_only","republican","no","no_limitedMeat","disagree_moderate","disagree_moderate","agree_moderate","agree_strong","n/a",66,"gerald_schiff_pvs","toby_chimp","much more right",2219,2
"145","S2","Hunger",55,"male","white","college_some","none","store owner","no_commited","0","USA","yes_only","republican","no","no_limitedMeat","disagree_moderate","disagree_moderate","agree_moderate","agree_strong","n/a",67,"delores_gleitman_deceased","samantha_hill_girl","much more right",2073,2
"146","S2","Hunger",55,"male","white","college_some","none","store owner","no_commited","0","USA","yes_only","republican","no","no_limitedMeat","disagree_moderate","disagree_moderate","agree_moderate","agree_strong","n/a",68,"you","nicholas_gannon_baby","both equally",2838,0
"147","S2","Hunger",55,"male","white","college_some","none","store owner","no_commited","0","USA","yes_only","republican","no","no_limitedMeat","disagree_moderate","disagree_moderate","agree_moderate","agree_strong","n/a",69,"samantha_hill_girl","green_frog","much more left",2022,-2
"148","S2","Hunger",55,"male","white","college_some","none","store owner","no_commited","0","USA","yes_only","republican","no","no_limitedMeat","disagree_moderate","disagree_moderate","agree_moderate","agree_strong","n/a",70,"samantha_hill_girl","god","much more left",2143,-2
"149","S2","Hunger",55,"male","white","college_some","none","store owner","no_commited","0","USA","yes_only","republican","no","no_limitedMeat","disagree_moderate","disagree_moderate","agree_moderate","agree_strong","n/a",71,"todd_billingsley_man","kismet_robot","much more left",2029,-2
"150","S2","Hunger",55,"male","white","college_some","none","store owner","no_commited","0","USA","yes_only","republican","no","no_limitedMeat","disagree_moderate","disagree_moderate","agree_moderate","agree_strong","n/a",72,"you","toby_chimp","both equally",2887,0
"151","S2","Hunger",55,"male","white","college_some","none","store owner","no_commited","0","USA","yes_only","republican","no","no_limitedMeat","disagree_moderate","disagree_moderate","agree_moderate","agree_strong","n/a",73,"sharon_harvey_woman","toby_chimp","both equally",1652,0
"152","S2","Hunger",55,"male","white","college_some","none","store owner","no_commited","0","USA","yes_only","republican","no","no_limitedMeat","disagree_moderate","disagree_moderate","agree_moderate","agree_strong","n/a",74,"nicholas_gannon_baby","kismet_robot","much more left",1571,-2
"153","S2","Hunger",55,"male","white","college_some","none","store owner","no_commited","0","USA","yes_only","republican","no","no_limitedMeat","disagree_moderate","disagree_moderate","agree_moderate","agree_strong","n/a",75,"you","kismet_robot","much more left",1286,-2
"154","S2","Hunger",55,"male","white","college_some","none","store owner","no_commited","0","USA","yes_only","republican","no","no_limitedMeat","disagree_moderate","disagree_moderate","agree_moderate","agree_strong","n/a",76,"you","god","much more left",2597,-2
"155","S2","Hunger",55,"male","white","college_some","none","store owner","no_commited","0","USA","yes_only","republican","no","no_limitedMeat","disagree_moderate","disagree_moderate","agree_moderate","agree_strong","n/a",77,"delores_gleitman_deceased","fetus","much more right",2826,2
"156","S2","Hunger",55,"male","white","college_some","none","store owner","no_commited","0","USA","yes_only","republican","no","no_limitedMeat","disagree_moderate","disagree_moderate","agree_moderate","agree_strong","n/a",78,"gerald_schiff_pvs","charlie_dog","much more right",6768,2
"157","S3","Self-Control",28,"female","white","grad_degree","christianity_evangelical","Ecologist","no","0","USA","yes_only","democrat","yes","yes","disagree_strong","disagree_strong","disagree_strong","neither","NA",1,"god","charlie_dog","much more right",9060,2
"158","S3","Self-Control",28,"female","white","grad_degree","christianity_evangelical","Ecologist","no","0","USA","yes_only","democrat","yes","yes","disagree_strong","disagree_strong","disagree_strong","neither","NA",2,"charlie_dog","samantha_hill_girl","much more right",1679,2
"159","S3","Self-Control",28,"female","white","grad_degree","christianity_evangelical","Ecologist","no","0","USA","yes_only","democrat","yes","yes","disagree_strong","disagree_strong","disagree_strong","neither","NA",3,"todd_billingsley_man","you","both equally",2145,0
"160","S3","Self-Control",28,"female","white","grad_degree","christianity_evangelical","Ecologist","no","0","USA","yes_only","democrat","yes","yes","disagree_strong","disagree_strong","disagree_strong","neither","NA",4,"toby_chimp","samantha_hill_girl","much more right",3461,2
"161","S3","Self-Control",28,"female","white","grad_degree","christianity_evangelical","Ecologist","no","0","USA","yes_only","democrat","yes","yes","disagree_strong","disagree_strong","disagree_strong","neither","NA",5,"gerald_schiff_pvs","god","both equally",3038,0
"162","S3","Self-Control",28,"female","white","grad_degree","christianity_evangelical","Ecologist","no","0","USA","yes_only","democrat","yes","yes","disagree_strong","disagree_strong","disagree_strong","neither","NA",6,"toby_chimp","sharon_harvey_woman","much more right",3078,2
"163","S3","Self-Control",28,"female","white","grad_degree","christianity_evangelical","Ecologist","no","0","USA","yes_only","democrat","yes","yes","disagree_strong","disagree_strong","disagree_strong","neither","NA",7,"fetus","nicholas_gannon_baby","much more right",1692,2
"164","S3","Self-Control",28,"female","white","grad_degree","christianity_evangelical","Ecologist","no","0","USA","yes_only","democrat","yes","yes","disagree_strong","disagree_strong","disagree_strong","neither","NA",8,"todd_billingsley_man","green_frog","much more left",1516,-2
"165","S3","Self-Control",28,"female","white","grad_degree","christianity_evangelical","Ecologist","no","0","USA","yes_only","democrat","yes","yes","disagree_strong","disagree_strong","disagree_strong","neither","NA",9,"you","charlie_dog","much more left",2381,-2
"166","S3","Self-Control",28,"female","white","grad_degree","christianity_evangelical","Ecologist","no","0","USA","yes_only","democrat","yes","yes","disagree_strong","disagree_strong","disagree_strong","neither","NA",10,"nicholas_gannon_baby","green_frog","much more left",1381,-2
"167","S3","Self-Control",28,"female","white","grad_degree","christianity_evangelical","Ecologist","no","0","USA","yes_only","democrat","yes","yes","disagree_strong","disagree_strong","disagree_strong","neither","NA",11,"toby_chimp","gerald_schiff_pvs","both equally",4024,0
"168","S3","Self-Control",28,"female","white","grad_degree","christianity_evangelical","Ecologist","no","0","USA","yes_only","democrat","yes","yes","disagree_strong","disagree_strong","disagree_strong","neither","NA",12,"sharon_harvey_woman","god","much more left",1990,-2
"169","S3","Self-Control",28,"female","white","grad_degree","christianity_evangelical","Ecologist","no","0","USA","yes_only","democrat","yes","yes","disagree_strong","disagree_strong","disagree_strong","neither","NA",13,"gerald_schiff_pvs","todd_billingsley_man","much more right",1796,2
"170","S3","Self-Control",28,"female","white","grad_degree","christianity_evangelical","Ecologist","no","0","USA","yes_only","democrat","yes","yes","disagree_strong","disagree_strong","disagree_strong","neither","NA",14,"sharon_harvey_woman","nicholas_gannon_baby","much more left",1499,-2
"171","S3","Self-Control",28,"female","white","grad_degree","christianity_evangelical","Ecologist","no","0","USA","yes_only","democrat","yes","yes","disagree_strong","disagree_strong","disagree_strong","neither","NA",15,"green_frog","charlie_dog","both equally",1975,0
"172","S3","Self-Control",28,"female","white","grad_degree","christianity_evangelical","Ecologist","no","0","USA","yes_only","democrat","yes","yes","disagree_strong","disagree_strong","disagree_strong","neither","NA",16,"samantha_hill_girl","delores_gleitman_deceased","much more left",1935,-2
"173","S3","Self-Control",28,"female","white","grad_degree","christianity_evangelical","Ecologist","no","0","USA","yes_only","democrat","yes","yes","disagree_strong","disagree_strong","disagree_strong","neither","NA",17,"delores_gleitman_deceased","gerald_schiff_pvs","both equally",2524,0
"174","S3","Self-Control",28,"female","white","grad_degree","christianity_evangelical","Ecologist","no","0","USA","yes_only","democrat","yes","yes","disagree_strong","disagree_strong","disagree_strong","neither","NA",18,"charlie_dog","toby_chimp","both equally",2116,0
"175","S3","Self-Control",28,"female","white","grad_degree","christianity_evangelical","Ecologist","no","0","USA","yes_only","democrat","yes","yes","disagree_strong","disagree_strong","disagree_strong","neither","NA",19,"todd_billingsley_man","fetus","much more left",1604,-2
"176","S3","Self-Control",28,"female","white","grad_degree","christianity_evangelical","Ecologist","no","0","USA","yes_only","democrat","yes","yes","disagree_strong","disagree_strong","disagree_strong","neither","NA",20,"kismet_robot","todd_billingsley_man","much more right",2344,2
"177","S3","Self-Control",28,"female","white","grad_degree","christianity_evangelical","Ecologist","no","0","USA","yes_only","democrat","yes","yes","disagree_strong","disagree_strong","disagree_strong","neither","NA",21,"delores_gleitman_deceased","toby_chimp","much more right",2045,2
"178","S3","Self-Control",28,"female","white","grad_degree","christianity_evangelical","Ecologist","no","0","USA","yes_only","democrat","yes","yes","disagree_strong","disagree_strong","disagree_strong","neither","NA",22,"god","toby_chimp","much more right",1253,2
"179","S3","Self-Control",28,"female","white","grad_degree","christianity_evangelical","Ecologist","no","0","USA","yes_only","democrat","yes","yes","disagree_strong","disagree_strong","disagree_strong","neither","NA",23,"kismet_robot","gerald_schiff_pvs","both equally",5960,0
"180","S3","Self-Control",28,"female","white","grad_degree","christianity_evangelical","Ecologist","no","0","USA","yes_only","democrat","yes","yes","disagree_strong","disagree_strong","disagree_strong","neither","NA",24,"kismet_robot","nicholas_gannon_baby","both equally",2437,0
"181","S3","Self-Control",28,"female","white","grad_degree","christianity_evangelical","Ecologist","no","0","USA","yes_only","democrat","yes","yes","disagree_strong","disagree_strong","disagree_strong","neither","NA",25,"delores_gleitman_deceased","you","much more right",1729,2
"182","S3","Self-Control",28,"female","white","grad_degree","christianity_evangelical","Ecologist","no","0","USA","yes_only","democrat","yes","yes","disagree_strong","disagree_strong","disagree_strong","neither","NA",26,"you","nicholas_gannon_baby","much more left",1656,-2
"183","S3","Self-Control",28,"female","white","grad_degree","christianity_evangelical","Ecologist","no","0","USA","yes_only","democrat","yes","yes","disagree_strong","disagree_strong","disagree_strong","neither","NA",27,"samantha_hill_girl","gerald_schiff_pvs","much more left",1525,-2
"184","S3","Self-Control",28,"female","white","grad_degree","christianity_evangelical","Ecologist","no","0","USA","yes_only","democrat","yes","yes","disagree_strong","disagree_strong","disagree_strong","neither","NA",28,"kismet_robot","you","much more right",1352,2
"185","S3","Self-Control",28,"female","white","grad_degree","christianity_evangelical","Ecologist","no","0","USA","yes_only","democrat","yes","yes","disagree_strong","disagree_strong","disagree_strong","neither","NA",29,"todd_billingsley_man","nicholas_gannon_baby","much more left",1399,-2
"186","S3","Self-Control",28,"female","white","grad_degree","christianity_evangelical","Ecologist","no","0","USA","yes_only","democrat","yes","yes","disagree_strong","disagree_strong","disagree_strong","neither","NA",30,"toby_chimp","todd_billingsley_man","much more right",1441,2
"187","S3","Self-Control",28,"female","white","grad_degree","christianity_evangelical","Ecologist","no","0","USA","yes_only","democrat","yes","yes","disagree_strong","disagree_strong","disagree_strong","neither","NA",31,"delores_gleitman_deceased","kismet_robot","both equally",1665,0
"188","S3","Self-Control",28,"female","white","grad_degree","christianity_evangelical","Ecologist","no","0","USA","yes_only","democrat","yes","yes","disagree_strong","disagree_strong","disagree_strong","neither","NA",32,"charlie_dog","nicholas_gannon_baby","both equally",5931,0
"189","S3","Self-Control",28,"female","white","grad_degree","christianity_evangelical","Ecologist","no","0","USA","yes_only","democrat","yes","yes","disagree_strong","disagree_strong","disagree_strong","neither","NA",33,"sharon_harvey_woman","you","both equally",2167,0
"190","S3","Self-Control",28,"female","white","grad_degree","christianity_evangelical","Ecologist","no","0","USA","yes_only","democrat","yes","yes","disagree_strong","disagree_strong","disagree_strong","neither","NA",34,"fetus","kismet_robot","slightly more right",3246,1
"191","S3","Self-Control",28,"female","white","grad_degree","christianity_evangelical","Ecologist","no","0","USA","yes_only","democrat","yes","yes","disagree_strong","disagree_strong","disagree_strong","neither","NA",35,"samantha_hill_girl","green_frog","much more left",1692,-2
"192","S3","Self-Control",28,"female","white","grad_degree","christianity_evangelical","Ecologist","no","0","USA","yes_only","democrat","yes","yes","disagree_strong","disagree_strong","disagree_strong","neither","NA",36,"nicholas_gannon_baby","toby_chimp","both equally",2094,0
"193","S3","Self-Control",28,"female","white","grad_degree","christianity_evangelical","Ecologist","no","0","USA","yes_only","democrat","yes","yes","disagree_strong","disagree_strong","disagree_strong","neither","NA",37,"sharon_harvey_woman","charlie_dog","much more left",1422,-2
"194","S3","Self-Control",28,"female","white","grad_degree","christianity_evangelical","Ecologist","no","0","USA","yes_only","democrat","yes","yes","disagree_strong","disagree_strong","disagree_strong","neither","NA",38,"samantha_hill_girl","kismet_robot","much more left",1562,-2
"195","S3","Self-Control",28,"female","white","grad_degree","christianity_evangelical","Ecologist","no","0","USA","yes_only","democrat","yes","yes","disagree_strong","disagree_strong","disagree_strong","neither","NA",39,"kismet_robot","charlie_dog","slightly more left",4087,-1
"196","S3","Self-Control",28,"female","white","grad_degree","christianity_evangelical","Ecologist","no","0","USA","yes_only","democrat","yes","yes","disagree_strong","disagree_strong","disagree_strong","neither","NA",40,"nicholas_gannon_baby","god","both equally",6351,0
"197","S3","Self-Control",28,"female","white","grad_degree","christianity_evangelical","Ecologist","no","0","USA","yes_only","democrat","yes","yes","disagree_strong","disagree_strong","disagree_strong","neither","NA",41,"charlie_dog","gerald_schiff_pvs","both equally",2154,0
"198","S3","Self-Control",28,"female","white","grad_degree","christianity_evangelical","Ecologist","no","0","USA","yes_only","democrat","yes","yes","disagree_strong","disagree_strong","disagree_strong","neither","NA",42,"sharon_harvey_woman","gerald_schiff_pvs","much more left",1697,-2
"199","S3","Self-Control",28,"female","white","grad_degree","christianity_evangelical","Ecologist","no","0","USA","yes_only","democrat","yes","yes","disagree_strong","disagree_strong","disagree_strong","neither","NA",43,"toby_chimp","kismet_robot","much more left",2482,-2
"200","S3","Self-Control",28,"female","white","grad_degree","christianity_evangelical","Ecologist","no","0","USA","yes_only","democrat","yes","yes","disagree_strong","disagree_strong","disagree_strong","neither","NA",44,"nicholas_gannon_baby","delores_gleitman_deceased","both equally",2026,0
"201","S3","Self-Control",28,"female","white","grad_degree","christianity_evangelical","Ecologist","no","0","USA","yes_only","democrat","yes","yes","disagree_strong","disagree_strong","disagree_strong","neither","NA",45,"fetus","god","both equally",3867,0
"202","S3","Self-Control",28,"female","white","grad_degree","christianity_evangelical","Ecologist","no","0","USA","yes_only","democrat","yes","yes","disagree_strong","disagree_strong","disagree_strong","neither","NA",46,"nicholas_gannon_baby","samantha_hill_girl","much more right",1882,2
"203","S3","Self-Control",28,"female","white","grad_degree","christianity_evangelical","Ecologist","no","0","USA","yes_only","democrat","yes","yes","disagree_strong","disagree_strong","disagree_strong","neither","NA",47,"sharon_harvey_woman","samantha_hill_girl","much more left",1368,-2
"204","S3","Self-Control",28,"female","white","grad_degree","christianity_evangelical","Ecologist","no","0","USA","yes_only","democrat","yes","yes","disagree_strong","disagree_strong","disagree_strong","neither","NA",48,"green_frog","god","both equally",4213,0
"205","S3","Self-Control",28,"female","white","grad_degree","christianity_evangelical","Ecologist","no","0","USA","yes_only","democrat","yes","yes","disagree_strong","disagree_strong","disagree_strong","neither","NA",49,"toby_chimp","you","slightly more right",4497,1
"206","S3","Self-Control",28,"female","white","grad_degree","christianity_evangelical","Ecologist","no","0","USA","yes_only","democrat","yes","yes","disagree_strong","disagree_strong","disagree_strong","neither","NA",50,"green_frog","toby_chimp","much more right",1547,2
"207","S3","Self-Control",28,"female","white","grad_degree","christianity_evangelical","Ecologist","no","0","USA","yes_only","democrat","yes","yes","disagree_strong","disagree_strong","disagree_strong","neither","NA",51,"fetus","green_frog","both equally",1805,0
"208","S3","Self-Control",28,"female","white","grad_degree","christianity_evangelical","Ecologist","no","0","USA","yes_only","democrat","yes","yes","disagree_strong","disagree_strong","disagree_strong","neither","NA",52,"delores_gleitman_deceased","sharon_harvey_woman","much more right",1472,2
"209","S3","Self-Control",28,"female","white","grad_degree","christianity_evangelical","Ecologist","no","0","USA","yes_only","democrat","yes","yes","disagree_strong","disagree_strong","disagree_strong","neither","NA",53,"todd_billingsley_man","god","much more left",1132,-2
"210","S3","Self-Control",28,"female","white","grad_degree","christianity_evangelical","Ecologist","no","0","USA","yes_only","democrat","yes","yes","disagree_strong","disagree_strong","disagree_strong","neither","NA",54,"you","samantha_hill_girl","much more left",1839,-2
"211","S3","Self-Control",28,"female","white","grad_degree","christianity_evangelical","Ecologist","no","0","USA","yes_only","democrat","yes","yes","disagree_strong","disagree_strong","disagree_strong","neither","NA",55,"toby_chimp","fetus","much more left",1792,-2
"212","S3","Self-Control",28,"female","white","grad_degree","christianity_evangelical","Ecologist","no","0","USA","yes_only","democrat","yes","yes","disagree_strong","disagree_strong","disagree_strong","neither","NA",56,"kismet_robot","green_frog","slightly more left",2382,-1
"213","S3","Self-Control",28,"female","white","grad_degree","christianity_evangelical","Ecologist","no","0","USA","yes_only","democrat","yes","yes","disagree_strong","disagree_strong","disagree_strong","neither","NA",57,"gerald_schiff_pvs","you","much more right",1850,2
"214","S3","Self-Control",28,"female","white","grad_degree","christianity_evangelical","Ecologist","no","0","USA","yes_only","democrat","yes","yes","disagree_strong","disagree_strong","disagree_strong","neither","NA",58,"sharon_harvey_woman","todd_billingsley_man","both equally",1462,0
"215","S3","Self-Control",28,"female","white","grad_degree","christianity_evangelical","Ecologist","no","0","USA","yes_only","democrat","yes","yes","disagree_strong","disagree_strong","disagree_strong","neither","NA",59,"delores_gleitman_deceased","green_frog","both equally",3308,0
"216","S3","Self-Control",28,"female","white","grad_degree","christianity_evangelical","Ecologist","no","0","USA","yes_only","democrat","yes","yes","disagree_strong","disagree_strong","disagree_strong","neither","NA",60,"todd_billingsley_man","delores_gleitman_deceased","much more left",1218,-2
"217","S3","Self-Control",28,"female","white","grad_degree","christianity_evangelical","Ecologist","no","0","USA","yes_only","democrat","yes","yes","disagree_strong","disagree_strong","disagree_strong","neither","NA",61,"charlie_dog","todd_billingsley_man","much more right",2381,2
"218","S3","Self-Control",28,"female","white","grad_degree","christianity_evangelical","Ecologist","no","0","USA","yes_only","democrat","yes","yes","disagree_strong","disagree_strong","disagree_strong","neither","NA",62,"fetus","gerald_schiff_pvs","both equally",2398,0
"219","S3","Self-Control",28,"female","white","grad_degree","christianity_evangelical","Ecologist","no","0","USA","yes_only","democrat","yes","yes","disagree_strong","disagree_strong","disagree_strong","neither","NA",63,"god","kismet_robot","slightly more right",2445,1
"220","S3","Self-Control",28,"female","white","grad_degree","christianity_evangelical","Ecologist","no","0","USA","yes_only","democrat","yes","yes","disagree_strong","disagree_strong","disagree_strong","neither","NA",64,"green_frog","you","much more right",1553,2
"221","S3","Self-Control",28,"female","white","grad_degree","christianity_evangelical","Ecologist","no","0","USA","yes_only","democrat","yes","yes","disagree_strong","disagree_strong","disagree_strong","neither","NA",65,"you","fetus","much more left",1313,-2
"222","S3","Self-Control",28,"female","white","grad_degree","christianity_evangelical","Ecologist","no","0","USA","yes_only","democrat","yes","yes","disagree_strong","disagree_strong","disagree_strong","neither","NA",66,"sharon_harvey_woman","green_frog","much more left",1244,-2
"223","S3","Self-Control",28,"female","white","grad_degree","christianity_evangelical","Ecologist","no","0","USA","yes_only","democrat","yes","yes","disagree_strong","disagree_strong","disagree_strong","neither","NA",67,"god","delores_gleitman_deceased","both equally",1396,0
"224","S3","Self-Control",28,"female","white","grad_degree","christianity_evangelical","Ecologist","no","0","USA","yes_only","democrat","yes","yes","disagree_strong","disagree_strong","disagree_strong","neither","NA",68,"delores_gleitman_deceased","charlie_dog","both equally",2909,0
"225","S3","Self-Control",28,"female","white","grad_degree","christianity_evangelical","Ecologist","no","0","USA","yes_only","democrat","yes","yes","disagree_strong","disagree_strong","disagree_strong","neither","NA",69,"kismet_robot","sharon_harvey_woman","much more right",2522,2
"226","S3","Self-Control",28,"female","white","grad_degree","christianity_evangelical","Ecologist","no","0","USA","yes_only","democrat","yes","yes","disagree_strong","disagree_strong","disagree_strong","neither","NA",70,"fetus","delores_gleitman_deceased","both equally",5298,0
"227","S3","Self-Control",28,"female","white","grad_degree","christianity_evangelical","Ecologist","no","0","USA","yes_only","democrat","yes","yes","disagree_strong","disagree_strong","disagree_strong","neither","NA",71,"green_frog","gerald_schiff_pvs","both equally",1702,0
"228","S3","Self-Control",28,"female","white","grad_degree","christianity_evangelical","Ecologist","no","0","USA","yes_only","democrat","yes","yes","disagree_strong","disagree_strong","disagree_strong","neither","NA",72,"samantha_hill_girl","fetus","much more left",1678,-2
"229","S3","Self-Control",28,"female","white","grad_degree","christianity_evangelical","Ecologist","no","0","USA","yes_only","democrat","yes","yes","disagree_strong","disagree_strong","disagree_strong","neither","NA",73,"nicholas_gannon_baby","gerald_schiff_pvs","both equally",1699,0
"230","S3","Self-Control",28,"female","white","grad_degree","christianity_evangelical","Ecologist","no","0","USA","yes_only","democrat","yes","yes","disagree_strong","disagree_strong","disagree_strong","neither","NA",74,"charlie_dog","fetus","slightly more left",2560,-1
"231","S3","Self-Control",28,"female","white","grad_degree","christianity_evangelical","Ecologist","no","0","USA","yes_only","democrat","yes","yes","disagree_strong","disagree_strong","disagree_strong","neither","NA",75,"god","you","much more right",2118,2
"232","S3","Self-Control",28,"female","white","grad_degree","christianity_evangelical","Ecologist","no","0","USA","yes_only","democrat","yes","yes","disagree_strong","disagree_strong","disagree_strong","neither","NA",76,"fetus","sharon_harvey_woman","much more right",1523,2
"233","S3","Self-Control",28,"female","white","grad_degree","christianity_evangelical","Ecologist","no","0","USA","yes_only","democrat","yes","yes","disagree_strong","disagree_strong","disagree_strong","neither","NA",77,"god","samantha_hill_girl","much more right",1202,2
"234","S3","Self-Control",28,"female","white","grad_degree","christianity_evangelical","Ecologist","no","0","USA","yes_only","democrat","yes","yes","disagree_strong","disagree_strong","disagree_strong","neither","NA",78,"todd_billingsley_man","samantha_hill_girl","much more right",770,2
"235","S4","Fear",59,"male","white","college_assocDegree","christianity_evangelical","unemployed","yes","3","usa","yes_only","independent","yes","no_limitedMeat","agree_moderate","agree_strong","agree_little","disagree_little","the first description of Pam loaded funny and I could not access it.",1,"kismet_robot","sharon_harvey_woman","much more right",4488,2
"236","S4","Fear",59,"male","white","college_assocDegree","christianity_evangelical","unemployed","yes","3","usa","yes_only","independent","yes","no_limitedMeat","agree_moderate","agree_strong","agree_little","disagree_little","the first description of Pam loaded funny and I could not access it.",2,"nicholas_gannon_baby","toby_chimp","both equally",3435,0
"237","S4","Fear",59,"male","white","college_assocDegree","christianity_evangelical","unemployed","yes","3","usa","yes_only","independent","yes","no_limitedMeat","agree_moderate","agree_strong","agree_little","disagree_little","the first description of Pam loaded funny and I could not access it.",3,"green_frog","charlie_dog","both equally",2398,0
"238","S4","Fear",59,"male","white","college_assocDegree","christianity_evangelical","unemployed","yes","3","usa","yes_only","independent","yes","no_limitedMeat","agree_moderate","agree_strong","agree_little","disagree_little","the first description of Pam loaded funny and I could not access it.",4,"charlie_dog","nicholas_gannon_baby","slightly more right",4411,1
"239","S4","Fear",59,"male","white","college_assocDegree","christianity_evangelical","unemployed","yes","3","usa","yes_only","independent","yes","no_limitedMeat","agree_moderate","agree_strong","agree_little","disagree_little","the first description of Pam loaded funny and I could not access it.",5,"you","kismet_robot","much more left",3163,-2
"240","S4","Fear",59,"male","white","college_assocDegree","christianity_evangelical","unemployed","yes","3","usa","yes_only","independent","yes","no_limitedMeat","agree_moderate","agree_strong","agree_little","disagree_little","the first description of Pam loaded funny and I could not access it.",6,"fetus","charlie_dog","slightly more right",5442,1
"241","S4","Fear",59,"male","white","college_assocDegree","christianity_evangelical","unemployed","yes","3","usa","yes_only","independent","yes","no_limitedMeat","agree_moderate","agree_strong","agree_little","disagree_little","the first description of Pam loaded funny and I could not access it.",7,"samantha_hill_girl","fetus","much more left",2641,-2
"242","S4","Fear",59,"male","white","college_assocDegree","christianity_evangelical","unemployed","yes","3","usa","yes_only","independent","yes","no_limitedMeat","agree_moderate","agree_strong","agree_little","disagree_little","the first description of Pam loaded funny and I could not access it.",8,"todd_billingsley_man","toby_chimp","both equally",5414,0
"243","S4","Fear",59,"male","white","college_assocDegree","christianity_evangelical","unemployed","yes","3","usa","yes_only","independent","yes","no_limitedMeat","agree_moderate","agree_strong","agree_little","disagree_little","the first description of Pam loaded funny and I could not access it.",9,"sharon_harvey_woman","charlie_dog","both equally",1820,0
"244","S4","Fear",59,"male","white","college_assocDegree","christianity_evangelical","unemployed","yes","3","usa","yes_only","independent","yes","no_limitedMeat","agree_moderate","agree_strong","agree_little","disagree_little","the first description of Pam loaded funny and I could not access it.",10,"samantha_hill_girl","delores_gleitman_deceased","much more left",2771,-2
"245","S4","Fear",59,"male","white","college_assocDegree","christianity_evangelical","unemployed","yes","3","usa","yes_only","independent","yes","no_limitedMeat","agree_moderate","agree_strong","agree_little","disagree_little","the first description of Pam loaded funny and I could not access it.",11,"nicholas_gannon_baby","delores_gleitman_deceased","much more left",1547,-2
"246","S4","Fear",59,"male","white","college_assocDegree","christianity_evangelical","unemployed","yes","3","usa","yes_only","independent","yes","no_limitedMeat","agree_moderate","agree_strong","agree_little","disagree_little","the first description of Pam loaded funny and I could not access it.",12,"you","samantha_hill_girl","slightly more left",5999,-1
"247","S4","Fear",59,"male","white","college_assocDegree","christianity_evangelical","unemployed","yes","3","usa","yes_only","independent","yes","no_limitedMeat","agree_moderate","agree_strong","agree_little","disagree_little","the first description of Pam loaded funny and I could not access it.",13,"fetus","you","much more right",5402,2
"248","S4","Fear",59,"male","white","college_assocDegree","christianity_evangelical","unemployed","yes","3","usa","yes_only","independent","yes","no_limitedMeat","agree_moderate","agree_strong","agree_little","disagree_little","the first description of Pam loaded funny and I could not access it.",14,"samantha_hill_girl","god","much more left",5400,-2
"249","S4","Fear",59,"male","white","college_assocDegree","christianity_evangelical","unemployed","yes","3","usa","yes_only","independent","yes","no_limitedMeat","agree_moderate","agree_strong","agree_little","disagree_little","the first description of Pam loaded funny and I could not access it.",15,"todd_billingsley_man","you","both equally",3186,0
"250","S4","Fear",59,"male","white","college_assocDegree","christianity_evangelical","unemployed","yes","3","usa","yes_only","independent","yes","no_limitedMeat","agree_moderate","agree_strong","agree_little","disagree_little","the first description of Pam loaded funny and I could not access it.",16,"samantha_hill_girl","toby_chimp","both equally",2717,0
"251","S4","Fear",59,"male","white","college_assocDegree","christianity_evangelical","unemployed","yes","3","usa","yes_only","independent","yes","no_limitedMeat","agree_moderate","agree_strong","agree_little","disagree_little","the first description of Pam loaded funny and I could not access it.",17,"charlie_dog","samantha_hill_girl","both equally",1601,0
"252","S4","Fear",59,"male","white","college_assocDegree","christianity_evangelical","unemployed","yes","3","usa","yes_only","independent","yes","no_limitedMeat","agree_moderate","agree_strong","agree_little","disagree_little","the first description of Pam loaded funny and I could not access it.",18,"gerald_schiff_pvs","kismet_robot","both equally",5798,0
"253","S4","Fear",59,"male","white","college_assocDegree","christianity_evangelical","unemployed","yes","3","usa","yes_only","independent","yes","no_limitedMeat","agree_moderate","agree_strong","agree_little","disagree_little","the first description of Pam loaded funny and I could not access it.",19,"green_frog","delores_gleitman_deceased","slightly more left",3539,-1
"254","S4","Fear",59,"male","white","college_assocDegree","christianity_evangelical","unemployed","yes","3","usa","yes_only","independent","yes","no_limitedMeat","agree_moderate","agree_strong","agree_little","disagree_little","the first description of Pam loaded funny and I could not access it.",20,"god","you","much more right",2586,2
"255","S4","Fear",59,"male","white","college_assocDegree","christianity_evangelical","unemployed","yes","3","usa","yes_only","independent","yes","no_limitedMeat","agree_moderate","agree_strong","agree_little","disagree_little","the first description of Pam loaded funny and I could not access it.",21,"kismet_robot","fetus","much more right",4068,2
"256","S4","Fear",59,"male","white","college_assocDegree","christianity_evangelical","unemployed","yes","3","usa","yes_only","independent","yes","no_limitedMeat","agree_moderate","agree_strong","agree_little","disagree_little","the first description of Pam loaded funny and I could not access it.",22,"kismet_robot","samantha_hill_girl","much more right",1320,2
"257","S4","Fear",59,"male","white","college_assocDegree","christianity_evangelical","unemployed","yes","3","usa","yes_only","independent","yes","no_limitedMeat","agree_moderate","agree_strong","agree_little","disagree_little","the first description of Pam loaded funny and I could not access it.",23,"charlie_dog","toby_chimp","both equally",2180,0
"258","S4","Fear",59,"male","white","college_assocDegree","christianity_evangelical","unemployed","yes","3","usa","yes_only","independent","yes","no_limitedMeat","agree_moderate","agree_strong","agree_little","disagree_little","the first description of Pam loaded funny and I could not access it.",24,"sharon_harvey_woman","green_frog","slightly more left",3101,-1
"259","S4","Fear",59,"male","white","college_assocDegree","christianity_evangelical","unemployed","yes","3","usa","yes_only","independent","yes","no_limitedMeat","agree_moderate","agree_strong","agree_little","disagree_little","the first description of Pam loaded funny and I could not access it.",25,"god","toby_chimp","much more right",2977,2
"260","S4","Fear",59,"male","white","college_assocDegree","christianity_evangelical","unemployed","yes","3","usa","yes_only","independent","yes","no_limitedMeat","agree_moderate","agree_strong","agree_little","disagree_little","the first description of Pam loaded funny and I could not access it.",26,"todd_billingsley_man","god","much more left",1790,-2
"261","S4","Fear",59,"male","white","college_assocDegree","christianity_evangelical","unemployed","yes","3","usa","yes_only","independent","yes","no_limitedMeat","agree_moderate","agree_strong","agree_little","disagree_little","the first description of Pam loaded funny and I could not access it.",27,"charlie_dog","you","both equally",2750,0
"262","S4","Fear",59,"male","white","college_assocDegree","christianity_evangelical","unemployed","yes","3","usa","yes_only","independent","yes","no_limitedMeat","agree_moderate","agree_strong","agree_little","disagree_little","the first description of Pam loaded funny and I could not access it.",28,"toby_chimp","green_frog","both equally",2579,0
"263","S4","Fear",59,"male","white","college_assocDegree","christianity_evangelical","unemployed","yes","3","usa","yes_only","independent","yes","no_limitedMeat","agree_moderate","agree_strong","agree_little","disagree_little","the first description of Pam loaded funny and I could not access it.",29,"toby_chimp","delores_gleitman_deceased","much more left",2284,-2
"264","S4","Fear",59,"male","white","college_assocDegree","christianity_evangelical","unemployed","yes","3","usa","yes_only","independent","yes","no_limitedMeat","agree_moderate","agree_strong","agree_little","disagree_little","the first description of Pam loaded funny and I could not access it.",30,"fetus","gerald_schiff_pvs","both equally",4054,0
"265","S4","Fear",59,"male","white","college_assocDegree","christianity_evangelical","unemployed","yes","3","usa","yes_only","independent","yes","no_limitedMeat","agree_moderate","agree_strong","agree_little","disagree_little","the first description of Pam loaded funny and I could not access it.",31,"gerald_schiff_pvs","green_frog","both equally",3396,0
"266","S4","Fear",59,"male","white","college_assocDegree","christianity_evangelical","unemployed","yes","3","usa","yes_only","independent","yes","no_limitedMeat","agree_moderate","agree_strong","agree_little","disagree_little","the first description of Pam loaded funny and I could not access it.",32,"todd_billingsley_man","fetus","slightly more left",3988,-1
"267","S4","Fear",59,"male","white","college_assocDegree","christianity_evangelical","unemployed","yes","3","usa","yes_only","independent","yes","no_limitedMeat","agree_moderate","agree_strong","agree_little","disagree_little","the first description of Pam loaded funny and I could not access it.",33,"kismet_robot","todd_billingsley_man","much more right",2166,2
"268","S4","Fear",59,"male","white","college_assocDegree","christianity_evangelical","unemployed","yes","3","usa","yes_only","independent","yes","no_limitedMeat","agree_moderate","agree_strong","agree_little","disagree_little","the first description of Pam loaded funny and I could not access it.",34,"kismet_robot","toby_chimp","much more right",2341,2
"269","S4","Fear",59,"male","white","college_assocDegree","christianity_evangelical","unemployed","yes","3","usa","yes_only","independent","yes","no_limitedMeat","agree_moderate","agree_strong","agree_little","disagree_little","the first description of Pam loaded funny and I could not access it.",35,"nicholas_gannon_baby","sharon_harvey_woman","slightly more right",2767,1
"270","S4","Fear",59,"male","white","college_assocDegree","christianity_evangelical","unemployed","yes","3","usa","yes_only","independent","yes","no_limitedMeat","agree_moderate","agree_strong","agree_little","disagree_little","the first description of Pam loaded funny and I could not access it.",36,"kismet_robot","nicholas_gannon_baby","much more right",2315,2
"271","S4","Fear",59,"male","white","college_assocDegree","christianity_evangelical","unemployed","yes","3","usa","yes_only","independent","yes","no_limitedMeat","agree_moderate","agree_strong","agree_little","disagree_little","the first description of Pam loaded funny and I could not access it.",37,"gerald_schiff_pvs","charlie_dog","slightly more right",5337,1
"272","S4","Fear",59,"male","white","college_assocDegree","christianity_evangelical","unemployed","yes","3","usa","yes_only","independent","yes","no_limitedMeat","agree_moderate","agree_strong","agree_little","disagree_little","the first description of Pam loaded funny and I could not access it.",38,"fetus","toby_chimp","slightly more right",2228,1
"273","S4","Fear",59,"male","white","college_assocDegree","christianity_evangelical","unemployed","yes","3","usa","yes_only","independent","yes","no_limitedMeat","agree_moderate","agree_strong","agree_little","disagree_little","the first description of Pam loaded funny and I could not access it.",39,"nicholas_gannon_baby","you","much more right",3722,2
"274","S4","Fear",59,"male","white","college_assocDegree","christianity_evangelical","unemployed","yes","3","usa","yes_only","independent","yes","no_limitedMeat","agree_moderate","agree_strong","agree_little","disagree_little","the first description of Pam loaded funny and I could not access it.",40,"green_frog","nicholas_gannon_baby","both equally",2656,0
"275","S4","Fear",59,"male","white","college_assocDegree","christianity_evangelical","unemployed","yes","3","usa","yes_only","independent","yes","no_limitedMeat","agree_moderate","agree_strong","agree_little","disagree_little","the first description of Pam loaded funny and I could not access it.",41,"you","gerald_schiff_pvs","much more left",3524,-2
"276","S4","Fear",59,"male","white","college_assocDegree","christianity_evangelical","unemployed","yes","3","usa","yes_only","independent","yes","no_limitedMeat","agree_moderate","agree_strong","agree_little","disagree_little","the first description of Pam loaded funny and I could not access it.",42,"fetus","nicholas_gannon_baby","slightly more right",2375,1
"277","S4","Fear",59,"male","white","college_assocDegree","christianity_evangelical","unemployed","yes","3","usa","yes_only","independent","yes","no_limitedMeat","agree_moderate","agree_strong","agree_little","disagree_little","the first description of Pam loaded funny and I could not access it.",43,"delores_gleitman_deceased","todd_billingsley_man","much more right",2051,2
"278","S4","Fear",59,"male","white","college_assocDegree","christianity_evangelical","unemployed","yes","3","usa","yes_only","independent","yes","no_limitedMeat","agree_moderate","agree_strong","agree_little","disagree_little","the first description of Pam loaded funny and I could not access it.",44,"gerald_schiff_pvs","god","much more left",3463,-2
"279","S4","Fear",59,"male","white","college_assocDegree","christianity_evangelical","unemployed","yes","3","usa","yes_only","independent","yes","no_limitedMeat","agree_moderate","agree_strong","agree_little","disagree_little","the first description of Pam loaded funny and I could not access it.",45,"todd_billingsley_man","samantha_hill_girl","both equally",3484,0
"280","S4","Fear",59,"male","white","college_assocDegree","christianity_evangelical","unemployed","yes","3","usa","yes_only","independent","yes","no_limitedMeat","agree_moderate","agree_strong","agree_little","disagree_little","the first description of Pam loaded funny and I could not access it.",46,"charlie_dog","kismet_robot","much more left",2118,-2
"281","S4","Fear",59,"male","white","college_assocDegree","christianity_evangelical","unemployed","yes","3","usa","yes_only","independent","yes","no_limitedMeat","agree_moderate","agree_strong","agree_little","disagree_little","the first description of Pam loaded funny and I could not access it.",47,"delores_gleitman_deceased","you","much more right",2777,2
"282","S4","Fear",59,"male","white","college_assocDegree","christianity_evangelical","unemployed","yes","3","usa","yes_only","independent","yes","no_limitedMeat","agree_moderate","agree_strong","agree_little","disagree_little","the first description of Pam loaded funny and I could not access it.",48,"god","delores_gleitman_deceased","much more left",2767,-2
"283","S4","Fear",59,"male","white","college_assocDegree","christianity_evangelical","unemployed","yes","3","usa","yes_only","independent","yes","no_limitedMeat","agree_moderate","agree_strong","agree_little","disagree_little","the first description of Pam loaded funny and I could not access it.",49,"todd_billingsley_man","green_frog","both equally",3883,0
"284","S4","Fear",59,"male","white","college_assocDegree","christianity_evangelical","unemployed","yes","3","usa","yes_only","independent","yes","no_limitedMeat","agree_moderate","agree_strong","agree_little","disagree_little","the first description of Pam loaded funny and I could not access it.",50,"delores_gleitman_deceased","kismet_robot","both equally",2319,0
"285","S4","Fear",59,"male","white","college_assocDegree","christianity_evangelical","unemployed","yes","3","usa","yes_only","independent","yes","no_limitedMeat","agree_moderate","agree_strong","agree_little","disagree_little","the first description of Pam loaded funny and I could not access it.",51,"fetus","green_frog","both equally",1713,0
"286","S4","Fear",59,"male","white","college_assocDegree","christianity_evangelical","unemployed","yes","3","usa","yes_only","independent","yes","no_limitedMeat","agree_moderate","agree_strong","agree_little","disagree_little","the first description of Pam loaded funny and I could not access it.",52,"nicholas_gannon_baby","gerald_schiff_pvs","slightly more left",3609,-1
"287","S4","Fear",59,"male","white","college_assocDegree","christianity_evangelical","unemployed","yes","3","usa","yes_only","independent","yes","no_limitedMeat","agree_moderate","agree_strong","agree_little","disagree_little","the first description of Pam loaded funny and I could not access it.",53,"delores_gleitman_deceased","fetus","slightly more right",3004,1
"288","S4","Fear",59,"male","white","college_assocDegree","christianity_evangelical","unemployed","yes","3","usa","yes_only","independent","yes","no_limitedMeat","agree_moderate","agree_strong","agree_little","disagree_little","the first description of Pam loaded funny and I could not access it.",54,"charlie_dog","todd_billingsley_man","both equally",2122,0
"289","S4","Fear",59,"male","white","college_assocDegree","christianity_evangelical","unemployed","yes","3","usa","yes_only","independent","yes","no_limitedMeat","agree_moderate","agree_strong","agree_little","disagree_little","the first description of Pam loaded funny and I could not access it.",55,"sharon_harvey_woman","samantha_hill_girl","slightly more left",3230,-1
"290","S4","Fear",59,"male","white","college_assocDegree","christianity_evangelical","unemployed","yes","3","usa","yes_only","independent","yes","no_limitedMeat","agree_moderate","agree_strong","agree_little","disagree_little","the first description of Pam loaded funny and I could not access it.",56,"samantha_hill_girl","nicholas_gannon_baby","slightly more left",3454,-1
"291","S4","Fear",59,"male","white","college_assocDegree","christianity_evangelical","unemployed","yes","3","usa","yes_only","independent","yes","no_limitedMeat","agree_moderate","agree_strong","agree_little","disagree_little","the first description of Pam loaded funny and I could not access it.",57,"sharon_harvey_woman","gerald_schiff_pvs","much more left",2303,-2
"292","S4","Fear",59,"male","white","college_assocDegree","christianity_evangelical","unemployed","yes","3","usa","yes_only","independent","yes","no_limitedMeat","agree_moderate","agree_strong","agree_little","disagree_little","the first description of Pam loaded funny and I could not access it.",58,"gerald_schiff_pvs","samantha_hill_girl","slightly more right",2280,1
"293","S4","Fear",59,"male","white","college_assocDegree","christianity_evangelical","unemployed","yes","3","usa","yes_only","independent","yes","no_limitedMeat","agree_moderate","agree_strong","agree_little","disagree_little","the first description of Pam loaded funny and I could not access it.",59,"gerald_schiff_pvs","toby_chimp","both equally",3058,0
"294","S4","Fear",59,"male","white","college_assocDegree","christianity_evangelical","unemployed","yes","3","usa","yes_only","independent","yes","no_limitedMeat","agree_moderate","agree_strong","agree_little","disagree_little","the first description of Pam loaded funny and I could not access it.",60,"god","nicholas_gannon_baby","much more right",3025,2
"295","S4","Fear",59,"male","white","college_assocDegree","christianity_evangelical","unemployed","yes","3","usa","yes_only","independent","yes","no_limitedMeat","agree_moderate","agree_strong","agree_little","disagree_little","the first description of Pam loaded funny and I could not access it.",61,"sharon_harvey_woman","delores_gleitman_deceased","much more left",2132,-2
"296","S4","Fear",59,"male","white","college_assocDegree","christianity_evangelical","unemployed","yes","3","usa","yes_only","independent","yes","no_limitedMeat","agree_moderate","agree_strong","agree_little","disagree_little","the first description of Pam loaded funny and I could not access it.",62,"samantha_hill_girl","green_frog","much more left",2204,-2
"297","S4","Fear",59,"male","white","college_assocDegree","christianity_evangelical","unemployed","yes","3","usa","yes_only","independent","yes","no_limitedMeat","agree_moderate","agree_strong","agree_little","disagree_little","the first description of Pam loaded funny and I could not access it.",63,"green_frog","god","much more left",2703,-2
"298","S4","Fear",59,"male","white","college_assocDegree","christianity_evangelical","unemployed","yes","3","usa","yes_only","independent","yes","no_limitedMeat","agree_moderate","agree_strong","agree_little","disagree_little","the first description of Pam loaded funny and I could not access it.",64,"you","green_frog","slightly more left",3181,-1
"299","S4","Fear",59,"male","white","college_assocDegree","christianity_evangelical","unemployed","yes","3","usa","yes_only","independent","yes","no_limitedMeat","agree_moderate","agree_strong","agree_little","disagree_little","the first description of Pam loaded funny and I could not access it.",65,"god","kismet_robot","both equally",3420,0
"300","S4","Fear",59,"male","white","college_assocDegree","christianity_evangelical","unemployed","yes","3","usa","yes_only","independent","yes","no_limitedMeat","agree_moderate","agree_strong","agree_little","disagree_little","the first description of Pam loaded funny and I could not access it.",66,"sharon_harvey_woman","god","much more left",3564,-2
"301","S4","Fear",59,"male","white","college_assocDegree","christianity_evangelical","unemployed","yes","3","usa","yes_only","independent","yes","no_limitedMeat","agree_moderate","agree_strong","agree_little","disagree_little","the first description of Pam loaded funny and I could not access it.",67,"god","charlie_dog","much more right",2486,2
"302","S4","Fear",59,"male","white","college_assocDegree","christianity_evangelical","unemployed","yes","3","usa","yes_only","independent","yes","no_limitedMeat","agree_moderate","agree_strong","agree_little","disagree_little","the first description of Pam loaded funny and I could not access it.",68,"fetus","god","much more left",2683,-2
"303","S4","Fear",59,"male","white","college_assocDegree","christianity_evangelical","unemployed","yes","3","usa","yes_only","independent","yes","no_limitedMeat","agree_moderate","agree_strong","agree_little","disagree_little","the first description of Pam loaded funny and I could not access it.",69,"todd_billingsley_man","sharon_harvey_woman","both equally",1991,0
"304","S4","Fear",59,"male","white","college_assocDegree","christianity_evangelical","unemployed","yes","3","usa","yes_only","independent","yes","no_limitedMeat","agree_moderate","agree_strong","agree_little","disagree_little","the first description of Pam loaded funny and I could not access it.",70,"gerald_schiff_pvs","delores_gleitman_deceased","much more left",3147,-2
"305","S4","Fear",59,"male","white","college_assocDegree","christianity_evangelical","unemployed","yes","3","usa","yes_only","independent","yes","no_limitedMeat","agree_moderate","agree_strong","agree_little","disagree_little","the first description of Pam loaded funny and I could not access it.",71,"toby_chimp","sharon_harvey_woman","slightly more right",7020,1
"306","S4","Fear",59,"male","white","college_assocDegree","christianity_evangelical","unemployed","yes","3","usa","yes_only","independent","yes","no_limitedMeat","agree_moderate","agree_strong","agree_little","disagree_little","the first description of Pam loaded funny and I could not access it.",72,"fetus","sharon_harvey_woman","slightly more right",3229,1
"307","S4","Fear",59,"male","white","college_assocDegree","christianity_evangelical","unemployed","yes","3","usa","yes_only","independent","yes","no_limitedMeat","agree_moderate","agree_strong","agree_little","disagree_little","the first description of Pam loaded funny and I could not access it.",73,"green_frog","kismet_robot","both equally",2567,0
"308","S4","Fear",59,"male","white","college_assocDegree","christianity_evangelical","unemployed","yes","3","usa","yes_only","independent","yes","no_limitedMeat","agree_moderate","agree_strong","agree_little","disagree_little","the first description of Pam loaded funny and I could not access it.",74,"nicholas_gannon_baby","todd_billingsley_man","slightly more right",4924,1
"309","S4","Fear",59,"male","white","college_assocDegree","christianity_evangelical","unemployed","yes","3","usa","yes_only","independent","yes","no_limitedMeat","agree_moderate","agree_strong","agree_little","disagree_little","the first description of Pam loaded funny and I could not access it.",75,"delores_gleitman_deceased","charlie_dog","much more right",3132,2
"310","S4","Fear",59,"male","white","college_assocDegree","christianity_evangelical","unemployed","yes","3","usa","yes_only","independent","yes","no_limitedMeat","agree_moderate","agree_strong","agree_little","disagree_little","the first description of Pam loaded funny and I could not access it.",76,"you","sharon_harvey_woman","both equally",2403,0
"311","S4","Fear",59,"male","white","college_assocDegree","christianity_evangelical","unemployed","yes","3","usa","yes_only","independent","yes","no_limitedMeat","agree_moderate","agree_strong","agree_little","disagree_little","the first description of Pam loaded funny and I could not access it.",77,"toby_chimp","you","slightly more right",3541,1
"312","S4","Fear",59,"male","white","college_assocDegree","christianity_evangelical","unemployed","yes","3","usa","yes_only","independent","yes","no_limitedMeat","agree_moderate","agree_strong","agree_little","disagree_little","the first description of Pam loaded funny and I could not access it.",78,"todd_billingsley_man","gerald_schiff_pvs","slightly more left",2969,-1
"313","S5","Self-Control",41,"female","white","college_bachDegree","christianity_protestant","Homemaker","yes","5","United States","yes_only","independent","no","no","agree_strong","agree_little","agree_little","agree_strong","No",1,"green_frog","charlie_dog","much more right",15544,2
"314","S5","Self-Control",41,"female","white","college_bachDegree","christianity_protestant","Homemaker","yes","5","United States","yes_only","independent","no","no","agree_strong","agree_little","agree_little","agree_strong","No",2,"samantha_hill_girl","toby_chimp","much more left",5184,-2
"315","S5","Self-Control",41,"female","white","college_bachDegree","christianity_protestant","Homemaker","yes","5","United States","yes_only","independent","no","no","agree_strong","agree_little","agree_little","agree_strong","No",3,"fetus","nicholas_gannon_baby","slightly more right",18783,1
"316","S5","Self-Control",41,"female","white","college_bachDegree","christianity_protestant","Homemaker","yes","5","United States","yes_only","independent","no","no","agree_strong","agree_little","agree_little","agree_strong","No",4,"todd_billingsley_man","charlie_dog","much more left",2138,-2
"317","S5","Self-Control",41,"female","white","college_bachDegree","christianity_protestant","Homemaker","yes","5","United States","yes_only","independent","no","no","agree_strong","agree_little","agree_little","agree_strong","No",5,"charlie_dog","delores_gleitman_deceased","much more left",3326,-2
"318","S5","Self-Control",41,"female","white","college_bachDegree","christianity_protestant","Homemaker","yes","5","United States","yes_only","independent","no","no","agree_strong","agree_little","agree_little","agree_strong","No",6,"gerald_schiff_pvs","god","much more right",6541,2
"319","S5","Self-Control",41,"female","white","college_bachDegree","christianity_protestant","Homemaker","yes","5","United States","yes_only","independent","no","no","agree_strong","agree_little","agree_little","agree_strong","No",7,"fetus","toby_chimp","much more right",7790,2
"320","S5","Self-Control",41,"female","white","college_bachDegree","christianity_protestant","Homemaker","yes","5","United States","yes_only","independent","no","no","agree_strong","agree_little","agree_little","agree_strong","No",8,"green_frog","toby_chimp","much more right",9533,2
"321","S5","Self-Control",41,"female","white","college_bachDegree","christianity_protestant","Homemaker","yes","5","United States","yes_only","independent","no","no","agree_strong","agree_little","agree_little","agree_strong","No",9,"toby_chimp","god","much more right",2417,2
"322","S5","Self-Control",41,"female","white","college_bachDegree","christianity_protestant","Homemaker","yes","5","United States","yes_only","independent","no","no","agree_strong","agree_little","agree_little","agree_strong","No",10,"todd_billingsley_man","toby_chimp","much more left",2899,-2
"323","S5","Self-Control",41,"female","white","college_bachDegree","christianity_protestant","Homemaker","yes","5","United States","yes_only","independent","no","no","agree_strong","agree_little","agree_little","agree_strong","No",11,"god","samantha_hill_girl","much more left",4308,-2
"324","S5","Self-Control",41,"female","white","college_bachDegree","christianity_protestant","Homemaker","yes","5","United States","yes_only","independent","no","no","agree_strong","agree_little","agree_little","agree_strong","No",12,"green_frog","kismet_robot","slightly more left",13330,-1
"325","S5","Self-Control",41,"female","white","college_bachDegree","christianity_protestant","Homemaker","yes","5","United States","yes_only","independent","no","no","agree_strong","agree_little","agree_little","agree_strong","No",13,"you","nicholas_gannon_baby","slightly more left",26,-1
"326","S5","Self-Control",41,"female","white","college_bachDegree","christianity_protestant","Homemaker","yes","5","United States","yes_only","independent","no","no","agree_strong","agree_little","agree_little","agree_strong","No",14,"sharon_harvey_woman","kismet_robot","much more left",2216,-2
"327","S5","Self-Control",41,"female","white","college_bachDegree","christianity_protestant","Homemaker","yes","5","United States","yes_only","independent","no","no","agree_strong","agree_little","agree_little","agree_strong","No",15,"samantha_hill_girl","kismet_robot","much more left",2093,-2
"328","S5","Self-Control",41,"female","white","college_bachDegree","christianity_protestant","Homemaker","yes","5","United States","yes_only","independent","no","no","agree_strong","agree_little","agree_little","agree_strong","No",16,"fetus","gerald_schiff_pvs","both equally",8011,0
"329","S5","Self-Control",41,"female","white","college_bachDegree","christianity_protestant","Homemaker","yes","5","United States","yes_only","independent","no","no","agree_strong","agree_little","agree_little","agree_strong","No",17,"gerald_schiff_pvs","todd_billingsley_man","much more right",3871,2
"330","S5","Self-Control",41,"female","white","college_bachDegree","christianity_protestant","Homemaker","yes","5","United States","yes_only","independent","no","no","agree_strong","agree_little","agree_little","agree_strong","No",18,"green_frog","samantha_hill_girl","much more right",2551,2
"331","S5","Self-Control",41,"female","white","college_bachDegree","christianity_protestant","Homemaker","yes","5","United States","yes_only","independent","no","no","agree_strong","agree_little","agree_little","agree_strong","No",19,"nicholas_gannon_baby","samantha_hill_girl","much more right",3454,2
"332","S5","Self-Control",41,"female","white","college_bachDegree","christianity_protestant","Homemaker","yes","5","United States","yes_only","independent","no","no","agree_strong","agree_little","agree_little","agree_strong","No",20,"sharon_harvey_woman","todd_billingsley_man","both equally",2515,0
"333","S5","Self-Control",41,"female","white","college_bachDegree","christianity_protestant","Homemaker","yes","5","United States","yes_only","independent","no","no","agree_strong","agree_little","agree_little","agree_strong","No",21,"charlie_dog","you","much more right",5207,2
"334","S5","Self-Control",41,"female","white","college_bachDegree","christianity_protestant","Homemaker","yes","5","United States","yes_only","independent","no","no","agree_strong","agree_little","agree_little","agree_strong","No",22,"nicholas_gannon_baby","delores_gleitman_deceased","much more left",3429,-2
"335","S5","Self-Control",41,"female","white","college_bachDegree","christianity_protestant","Homemaker","yes","5","United States","yes_only","independent","no","no","agree_strong","agree_little","agree_little","agree_strong","No",23,"fetus","delores_gleitman_deceased","slightly more left",8377,-1
